trials_2.thisTrialN,trials_2.stepSize,trials_2.intensity,fixation.started,grating.started,key_resp.started,fixation.stopped,grating.stopped,corrAns,tilt,key_resp.corr,trials_2.response,key_resp.rt,participant,session,date,expName,psychopyVersion,frameRate,
0,2,10.0,7.646121400000993,8.159338099998422,8.159338099998422,8.177485499996692,8.461240799995721,right,10.0,1,1,326.0483959000121,706694,001,2023-09-07_12h31.53.869,tutorial 1 final,2023.1.3,59.92484226259209,
1,2,8.0,9.277388300004532,9.777289999998175,9.777289999998175,9.777289999998175,10.076986100000795,right,8.0,1,1,330.14500610000687,706694,001,2023-09-07_12h31.53.869,tutorial 1 final,2023.1.3,59.92484226259209,
2,2,6.0,14.995393600009265,15.495154999996885,15.495154999996885,15.495154999996885,15.794779400006519,left,-6.0,1,1,325.5472870000085,706694,001,2023-09-07_12h31.53.869,tutorial 1 final,2023.1.3,59.92484226259209,
3,2,4.0,16.111284800004796,16.611975699997856,16.611975699997856,16.611975699997856,16.91192919999594,right,4.0,1,1,325.4761991000123,706694,001,2023-09-07_12h31.53.869,tutorial 1 final,2023.1.3,59.92484226259209,
4,2,2.0,17.16120960000262,17.661362700004247,17.661362700004247,17.661362700004247,17.961414200006402,left,-2.0,1,1,325.7044553000014,706694,001,2023-09-07_12h31.53.869,tutorial 1 final,2023.1.3,59.92484226259209,
5,2,0.0,18.444188299996313,18.94471650000196,18.94471650000196,18.94471650000196,19.244049100001575,left,-0.0,1,1,326.28826690001006,706694,001,2023-09-07_12h31.53.869,tutorial 1 final,2023.1.3,59.92484226259209,
6,2,0.0,20.310520600003656,20.794050399999833,20.794050399999833,20.81094850000227,21.0940694000019,right,0.0,1,1,325.8387520999968,706694,001,2023-09-07_12h31.53.869,tutorial 1 final,2023.1.3,59.92484226259209,
7,1,0.0,21.710677099996246,22.194137099999352,22.194137099999352,22.210781500005396,22.493564999997034,left,-0.0,0,0,326.06243540000287,706694,001,2023-09-07_12h31.53.869,tutorial 1 final,2023.1.3,59.92484226259209,
8,1,1.0,23.328144500002963,23.827149300006568,23.827149300006568,23.843827999997302,24.12664780000341,left,-1.0,1,1,325.6125631000032,706694,001,2023-09-07_12h31.53.869,tutorial 1 final,2023.1.3,59.92484226259209,
9,1,1.0,24.510683800006518,25.010627399999066,25.010627399999066,25.010627399999066,25.310920800009626,left,-1.0,1,1,325.6096610000095,706694,001,2023-09-07_12h31.53.869,tutorial 1 final,2023.1.3,59.92484226259209,
10,1,1.0,25.69331180000154,26.194033300009323,26.194033300009323,26.194033300009323,26.49428210000042,right,1.0,1,1,325.5833560000028,706694,001,2023-09-07_12h31.53.869,tutorial 1 final,2023.1.3,59.92484226259209,
11,1,0.0,26.860157500006608,27.36030660000688,27.36030660000688,27.36030660000688,27.660767299996223,right,0.0,1,1,325.7867155999993,706694,001,2023-09-07_12h31.53.869,tutorial 1 final,2023.1.3,59.92484226259209,
12,0.5,0.0,28.226513000001432,28.72750100000121,28.72750100000121,28.72750100000121,29.027073699995526,left,-0.0,0,0,325.64650780000375,706694,001,2023-09-07_12h31.53.869,tutorial 1 final,2023.1.3,59.92484226259209,
13,0.5,0.5,29.44413840000925,29.94324290000077,29.94324290000077,29.94324290000077,30.243558300004224,right,0.5,1,1,325.7124409000098,706694,001,2023-09-07_12h31.53.869,tutorial 1 final,2023.1.3,59.92484226259209,
14,0.5,0.5,30.72613189999538,31.227021700004116,31.227021700004116,31.227021700004116,31.526837800003705,right,0.5,0,0,325.6154196999996,706694,001,2023-09-07_12h31.53.869,tutorial 1 final,2023.1.3,59.92484226259209,
15,0.5,1.0,31.926605100001325,32.42625709999993,32.42625709999993,32.42625709999993,32.72497840000142,right,1.0,0,0,325.6138006999972,706694,001,2023-09-07_12h31.53.869,tutorial 1 final,2023.1.3,59.92484226259209,
16,0.5,1.5,33.10932430000685,33.61063819999981,33.61063819999981,33.61063819999981,33.927219699995476,right,1.5,1,1,325.679464300003,706694,001,2023-09-07_12h31.53.869,tutorial 1 final,2023.1.3,59.92484226259209,
17,0.5,1.5,34.359425700007705,34.858939500001725,34.858939500001725,34.858939500001725,35.159634800002095,right,1.5,1,1,325.6807134000119,706694,001,2023-09-07_12h31.53.869,tutorial 1 final,2023.1.3,59.92484226259209,
18,0.5,1.5,35.6091763000004,36.10880180000095,36.10880180000095,36.10880180000095,36.40966970000591,left,-1.5,1,1,325.39736660000926,706694,001,2023-09-07_12h31.53.869,tutorial 1 final,2023.1.3,59.92484226259209,
19,0.5,1.0,36.57560340000782,37.0760278999951,37.0760278999951,37.0760278999951,37.375224100003834,left,-1.0,1,1,325.7800850000058,706694,001,2023-09-07_12h31.53.869,tutorial 1 final,2023.1.3,59.92484226259209,
20,0.5,1.0,37.925332400001935,38.425995099998545,38.425995099998545,38.425995099998545,38.725957300004666,left,-1.0,1,1,325.72834060000605,706694,001,2023-09-07_12h31.53.869,tutorial 1 final,2023.1.3,59.92484226259209,
21,0.5,1.0,39.224866899996414,39.726131500006886,39.726131500006886,39.726131500006886,40.02545570000075,right,1.0,1,1,325.58153070000117,706694,001,2023-09-07_12h31.53.869,tutorial 1 final,2023.1.3,59.92484226259209,
22,0.5,0.5,40.37574289999611,40.875933600007556,40.875933600007556,40.875933600007556,41.191526099995826,right,0.5,1,1,325.59588000000804,706694,001,2023-09-07_12h31.53.869,tutorial 1 final,2023.1.3,59.92484226259209,
23,0.5,0.5,41.54137790000823,42.04193859999941,42.04193859999941,42.04193859999941,42.34177300000738,left,-0.5,1,1,325.51446429999487,706694,001,2023-09-07_12h31.53.869,tutorial 1 final,2023.1.3,59.92484226259209,
24,0.5,0.5,42.62509950000094,43.124537900002906,43.124537900002906,43.124537900002906,43.42436180000368,left,-0.5,1,1,325.6926778000052,706694,001,2023-09-07_12h31.53.869,tutorial 1 final,2023.1.3,59.92484226259209,
25,0.5,0.0,43.891216999996686,44.39116189999913,44.39116189999913,44.39116189999913,44.69149019999895,right,0.0,1,1,325.6635043000133,706694,001,2023-09-07_12h31.53.869,tutorial 1 final,2023.1.3,59.92484226259209,
26,0.5,0.0,45.12328339999658,45.625075100004324,45.625075100004324,45.625075100004324,45.924325700005284,left,-0.0,0,0,325.69668029999593,706694,001,2023-09-07_12h31.53.869,tutorial 1 final,2023.1.3,59.92484226259209,
27,0.5,0.5,46.391234700000496,46.89079109999875,46.89079109999875,46.89079109999875,47.190956000005826,left,-0.5,1,1,325.4781636999978,706694,001,2023-09-07_12h31.53.869,tutorial 1 final,2023.1.3,59.92484226259209,
28,0.5,0.5,47.441221200002474,47.942499199998565,47.942499199998565,47.942499199998565,48.257820900005754,left,-0.5,1,1,325.6445309000119,706694,001,2023-09-07_12h31.53.869,tutorial 1 final,2023.1.3,59.92484226259209,
29,0.5,0.5,48.65768180000305,49.15760140000202,49.15760140000202,49.15760140000202,49.45859540000674,left,-0.5,1,1,325.6425808000058,706694,001,2023-09-07_12h31.53.869,tutorial 1 final,2023.1.3,59.92484226259209,
30,0.5,0.0,49.87361300000339,50.37432410000474,50.37432410000474,50.37432410000474,50.673901700007264,left,-0.0,1,1,328.19127810001373,706694,001,2023-09-07_12h31.53.869,tutorial 1 final,2023.1.3,59.92484226259209,
31,0.5,0.0,53.639749299996765,54.14033150000614,54.14033150000614,54.14033150000614,54.45597219999763,left,-0.0,1,1,325.76364230000763,706694,001,2023-09-07_12h31.53.869,tutorial 1 final,2023.1.3,59.92484226259209,
32,0.5,0.0,54.97237479999603,55.473715000000084,55.473715000000084,55.473715000000084,55.77276980000897,right,0.0,1,1,325.41068300000916,706694,001,2023-09-07_12h31.53.869,tutorial 1 final,2023.1.3,59.92484226259209,
33,0.5,0.0,55.95552220000536,56.45667719999619,56.45667719999619,56.45667719999619,56.75630500000261,left,-0.0,0,0,327.3933667000092,706694,001,2023-09-07_12h31.53.869,tutorial 1 final,2023.1.3,59.92484226259209,
34,0.5,0.5,58.92244700000447,59.422524599998724,59.422524599998724,59.422524599998724,59.722794500004966,right,0.5,1,1,325.94655530000455,706694,001,2023-09-07_12h31.53.869,tutorial 1 final,2023.1.3,59.92484226259209,
35,0.5,0.5,60.43914180000138,60.93910790000518,60.93910790000518,60.93910790000518,61.23939329999848,left,-0.5,0,0,325.79264990001684,706694,001,2023-09-07_12h31.53.869,tutorial 1 final,2023.1.3,59.92484226259209,
36,0.5,1.0,61.80582170000707,62.305502400005935,62.305502400005935,62.305502400005935,62.60591320000822,right,1.0,1,1,326.094196200007,706694,001,2023-09-07_12h31.53.869,tutorial 1 final,2023.1.3,59.92484226259209,
37,0.5,1.0,63.472185999999056,63.97228030000406,63.97228030000406,63.97228030000406,64.2710311999981,right,1.0,0,0,325.64303170000494,706694,001,2023-09-07_12h31.53.869,tutorial 1 final,2023.1.3,59.92484226259209,
38,0.5,1.5,64.6884596000018,65.18833720000111,65.18833720000111,65.18833720000111,65.48779830000421,left,-1.5,1,1,325.6420388000115,706694,001,2023-09-07_12h31.53.869,tutorial 1 final,2023.1.3,59.92484226259209,
39,0.5,1.5,65.90529059999972,66.40450770000461,66.40450770000461,66.40450770000461,66.7047353000089,right,1.5,1,1,325.5912832000031,706694,001,2023-09-07_12h31.53.869,tutorial 1 final,2023.1.3,59.92484226259209,
40,0.5,1.5,67.07197079999605,67.57112690000213,67.57112690000213,67.57112690000213,67.87104790000012,left,-1.5,1,1,325.6640882000065,706694,001,2023-09-07_12h31.53.869,tutorial 1 final,2023.1.3,59.92484226259209,
41,0.5,1.0,68.30436900000495,68.80481519999739,68.80481519999739,68.80481519999739,69.10498309999821,right,1.0,1,1,325.68061750000925,706694,001,2023-09-07_12h31.53.869,tutorial 1 final,2023.1.3,59.92484226259209,
42,0.5,1.0,69.55504980000842,70.05513690000225,70.05513690000225,70.05513690000225,70.35424610000337,left,-1.0,1,1,325.6466688000073,706694,001,2023-09-07_12h31.53.869,tutorial 1 final,2023.1.3,59.92484226259209,
43,0.5,1.0,70.77124760000152,71.27172910000081,71.27172910000081,71.27172910000081,71.57082670000091,left,-1.0,1,1,325.7802148000046,706694,001,2023-09-07_12h31.53.869,tutorial 1 final,2023.1.3,59.92484226259209,
44,0.5,0.5,72.1209627000062,72.62082189999637,72.62082189999637,72.62082189999637,72.92203770000197,left,-0.5,1,1,325.7479972000001,706694,001,2023-09-07_12h31.53.869,tutorial 1 final,2023.1.3,59.92484226259209,
45,0.5,0.5,73.43709980000858,73.9376440000051,73.9376440000051,73.9376440000051,74.23775020000176,right,0.5,1,1,325.74725470000703,706694,001,2023-09-07_12h31.53.869,tutorial 1 final,2023.1.3,59.92484226259209,
46,0.5,0.5,74.75365959999908,75.25453430000925,75.25453430000925,75.25453430000925,75.55389229999855,left,-0.5,1,1,325.7095232000138,706694,001,2023-09-07_12h31.53.869,tutorial 1 final,2023.1.3,59.92484226259209,
47,0.5,0.0,76.03752189999796,76.53721320000477,76.53721320000477,76.53721320000477,76.83712160000869,left,-0.0,1,1,325.6124645000091,706694,001,2023-09-07_12h31.53.869,tutorial 1 final,2023.1.3,59.92484226259209,
48,0.5,0.0,77.22069929999998,77.72033999999985,77.72033999999985,77.72033999999985,78.01986210000177,right,0.0,1,1,325.5972056000028,706694,001,2023-09-07_12h31.53.869,tutorial 1 final,2023.1.3,59.92484226259209,
49,0.5,0.0,78.3864229000028,78.88681999999972,78.88681999999972,78.88681999999972,79.18676660000347,left,-0.0,1,1,325.69378480000887,706694,001,2023-09-07_12h31.53.869,tutorial 1 final,2023.1.3,59.92484226259209,
50,0.5,0.0,79.65245779999532,80.15319880000607,80.15319880000607,80.15319880000607,80.4529263000004,left,-0.0,0,0,325.6433539999998,706694,001,2023-09-07_12h31.53.869,tutorial 1 final,2023.1.3,59.92484226259209,
51,0.5,0.5,80.86970880000445,81.37026860000333,81.37026860000333,81.37026860000333,81.68601259999559,right,0.5,1,1,325.71379409999645,706694,001,2023-09-07_12h31.53.869,tutorial 1 final,2023.1.3,59.92484226259209,
52,0.5,0.5,82.15312630000699,82.65237409999827,82.65237409999827,82.65237409999827,82.95351420000952,left,-0.5,1,1,325.6145891000051,706694,001,2023-09-07_12h31.53.869,tutorial 1 final,2023.1.3,59.92484226259209,
53,0.5,0.5,83.33573560000514,83.83634660000098,83.83634660000098,83.83634660000098,84.13581350000459,left,-0.5,1,1,325.5976654999977,706694,001,2023-09-07_12h31.53.869,tutorial 1 final,2023.1.3,59.92484226259209,
54,0.5,0.0,84.50154589999875,85.0029685000045,85.0029685000045,85.0029685000045,85.30234870000277,right,0.0,1,1,325.66444530000445,706694,001,2023-09-07_12h31.53.869,tutorial 1 final,2023.1.3,59.92484226259209,
55,0.5,0.0,85.73652240000956,86.23636520000582,86.23636520000582,86.23636520000582,86.53627310000593,left,-0.0,0,0,325.6968765000056,706694,001,2023-09-07_12h31.53.869,tutorial 1 final,2023.1.3,59.92484226259209,
56,0.5,0.5,87.00222249999933,87.50306360000104,87.50306360000104,87.50306360000104,87.80131090000214,right,0.5,1,1,325.7248938999983,706694,001,2023-09-07_12h31.53.869,tutorial 1 final,2023.1.3,59.92484226259209,
57,0.5,0.5,88.30200060000061,88.80206539999926,88.80206539999926,88.80206539999926,89.1023370000039,right,0.5,0,0,325.69059950001247,706694,001,2023-09-07_12h31.53.869,tutorial 1 final,2023.1.3,59.92484226259209,
58,0.5,1.0,89.56849990000774,90.06910609999613,90.06910609999613,90.06910609999613,90.36854640000092,left,-1.0,1,1,325.84618720000435,706694,001,2023-09-07_12h31.53.869,tutorial 1 final,2023.1.3,59.92484226259209,
59,0.5,1.0,90.98506520000228,91.48565539999981,91.48565539999981,91.48565539999981,91.78472060000058,left,-1.0,0,0,325.71400720000383,706694,001,2023-09-07_12h31.53.869,tutorial 1 final,2023.1.3,59.92484226259209,
60,0.5,1.5,92.26812520000385,92.76847510000516,92.76847510000516,92.76847510000516,93.06857699999819,right,1.5,1,1,325.92770690000907,706694,001,2023-09-07_12h31.53.869,tutorial 1 final,2023.1.3,59.92484226259209,
61,0.5,1.5,93.7680446000013,94.26797620000434,94.26797620000434,94.26797620000434,94.56830139999511,right,1.5,1,1,325.79677900001116,706694,001,2023-09-07_12h31.53.869,tutorial 1 final,2023.1.3,59.92484226259209,
62,0.5,1.5,95.13518569999724,95.63494240000728,95.63494240000728,95.63494240000728,95.93397399999958,right,1.5,1,1,325.79029200000514,706694,001,2023-09-07_12h31.53.869,tutorial 1 final,2023.1.3,59.92484226259209,
63,0.5,1.0,96.50095810000494,97.00119550000818,97.00119550000818,97.00119550000818,97.30084500000521,right,1.0,1,1,325.855862299999,706694,001,2023-09-07_12h31.53.869,tutorial 1 final,2023.1.3,59.92484226259209,
64,0.5,1.0,97.93378780000785,98.43438510000124,98.43438510000124,98.43438510000124,98.73503650000202,right,1.0,1,1,327.9466136999981,706694,001,2023-09-07_12h31.53.869,tutorial 1 final,2023.1.3,59.92484226259209,
65,0.5,1.0,101.45068419999734,101.95128550000663,101.95128550000663,101.95128550000663,102.25092360000417,left,-1.0,1,1,325.5050887999969,706694,001,2023-09-07_12h31.53.869,tutorial 1 final,2023.1.3,59.92484226259209,
66,0.5,0.5,102.53322549999575,103.03371679999691,103.03371679999691,103.03371679999691,103.33378549999907,right,0.5,1,1,325.7307264999981,706694,001,2023-09-07_12h31.53.869,tutorial 1 final,2023.1.3,59.92484226259209,
67,0.5,0.5,103.83279420000326,104.33405170000333,104.33405170000333,104.33405170000333,104.63362049999705,right,0.5,1,1,325.6630401000002,706694,001,2023-09-07_12h31.53.869,tutorial 1 final,2023.1.3,59.92484226259209,
68,0.5,0.5,105.06706549999944,105.56635219999589,105.56635219999589,105.56635219999589,105.86635360000946,right,0.5,1,1,325.7641564000078,706694,001,2023-09-07_12h31.53.869,tutorial 1 final,2023.1.3,59.92484226259209,
69,0.5,0.0,106.39943020000646,106.90004870000121,106.90004870000121,106.90004870000121,107.19975040000281,right,0.0,0,0,325.63735079999606,706694,001,2023-09-07_12h31.53.869,tutorial 1 final,2023.1.3,59.92484226259209,
70,0.5,0.5,107.61612459999742,108.11649570000009,108.11649570000009,108.11649570000009,108.41558610000357,right,0.5,1,1,325.5474149000074,706694,001,2023-09-07_12h31.53.869,tutorial 1 final,2023.1.3,59.92484226259209,
71,0.5,0.5,108.73246110000764,109.23366690000694,109.23366690000694,109.23366690000694,109.53206340000906,right,0.5,1,1,325.5637390000047,706694,001,2023-09-07_12h31.53.869,tutorial 1 final,2023.1.3,59.92484226259209,
72,0.5,0.5,109.86581699999806,110.36566389999643,110.36566389999643,110.36566389999643,110.6657983000041,right,0.5,1,1,325.597998000012,706694,001,2023-09-07_12h31.53.869,tutorial 1 final,2023.1.3,59.92484226259209,
73,0.5,0.0,111.03296240000054,111.53200619999552,111.53200619999552,111.53200619999552,111.83238130000245,left,-0.0,0,0,325.58856590000505,706694,001,2023-09-07_12h31.53.869,tutorial 1 final,2023.1.3,59.92484226259209,
74,0.5,0.5,112.19921279999835,112.6993652999954,112.6993652999954,112.6993652999954,112.99846740000066,right,0.5,1,1,325.5973699000024,706694,001,2023-09-07_12h31.53.869,tutorial 1 final,2023.1.3,59.92484226259209,
75,0.5,0.5,113.36533770000096,113.86425240000244,113.86425240000244,113.86425240000244,114.1660331000021,left,-0.5,1,1,325.74859420000575,706694,001,2023-09-07_12h31.53.869,tutorial 1 final,2023.1.3,59.92484226259209,
76,0.5,0.5,114.68259310000576,115.18218350000097,115.18218350000097,115.18218350000097,115.48195490000944,right,0.5,0,0,325.83697630000825,706694,001,2023-09-07_12h31.53.869,tutorial 1 final,2023.1.3,59.92484226259209,
77,0.5,1.0,116.09883190000255,116.5991703000036,116.5991703000036,116.5991703000036,116.8981688000058,left,-1.0,1,1,325.59149700000125,706694,001,2023-09-07_12h31.53.869,tutorial 1 final,2023.1.3,59.92484226259209,
78,0.5,1.0,117.26502980000805,117.76604309999675,117.76604309999675,117.76604309999675,118.06523600000946,right,1.0,1,1,325.6457281000039,706694,001,2023-09-07_12h31.53.869,tutorial 1 final,2023.1.3,59.92484226259209,
79,0.5,1.0,118.48137520000455,118.98153570000432,118.98153570000432,118.98153570000432,119.28132629999891,left,-1.0,1,1,325.5965925000055,706694,001,2023-09-07_12h31.53.869,tutorial 1 final,2023.1.3,59.92484226259209,
80,0.5,0.5,119.64840879999974,120.14799610000046,120.14799610000046,120.14799610000046,120.44834960000298,right,0.5,0,0,325.7107074000087,706694,001,2023-09-07_12h31.53.869,tutorial 1 final,2023.1.3,59.92484226259209,
81,0.5,1.0,120.93025740000303,121.43155760000809,121.43155760000809,121.43155760000809,121.73179079999682,right,1.0,0,0,325.696987000003,706694,001,2023-09-07_12h31.53.869,tutorial 1 final,2023.1.3,59.92484226259209,
82,0.5,1.5,122.19739790000312,122.69790450000437,122.69790450000437,122.69790450000437,122.99790129999747,left,-1.5,1,1,325.86375119999866,706694,001,2023-09-07_12h31.53.869,tutorial 1 final,2023.1.3,59.92484226259209,
83,0.5,1.5,123.63037430000259,124.13127420000092,124.13127420000092,124.13127420000092,124.44774099999631,left,-1.5,1,1,326.87239489999774,706694,001,2023-09-07_12h31.53.869,tutorial 1 final,2023.1.3,59.92484226259209,
84,0.5,1.5,126.08119340000849,126.58052730000054,126.58052730000054,126.58052730000054,126.88059939999948,left,-1.5,1,1,325.64691930000845,706694,001,2023-09-07_12h31.53.869,tutorial 1 final,2023.1.3,59.92484226259209,
85,0.5,1.0,127.29684870000347,127.7971464000002,127.7971464000002,127.7971464000002,128.09721310000168,left,-1.0,1,1,325.7128650000086,706694,001,2023-09-07_12h31.53.869,tutorial 1 final,2023.1.3,59.92484226259209,
86,0.5,1.0,128.58019720000448,129.0807050000003,129.0807050000003,129.0807050000003,129.38034689999768,left,-1.0,1,1,325.5962557000021,706694,001,2023-09-07_12h31.53.869,tutorial 1 final,2023.1.3,59.92484226259209,
87,0.5,1.0,129.74625720000768,130.24705210000684,130.24705210000684,130.24705210000684,130.54614520000177,right,1.0,1,1,325.5140320000064,706694,001,2023-09-07_12h31.53.869,tutorial 1 final,2023.1.3,59.92484226259209,
88,0.5,0.5,130.830271800005,131.32964160000847,131.32964160000847,131.32964160000847,131.63015599999926,right,0.5,0,0,326.24584800000594,706694,001,2023-09-07_12h31.53.869,tutorial 1 final,2023.1.3,59.92484226259209,
89,0.5,1.0,132.6463614999957,133.14616679999745,133.14616679999745,133.14616679999745,133.44710750000377,right,1.0,1,1,325.6460828999989,706694,001,2023-09-07_12h31.53.869,tutorial 1 final,2023.1.3,59.92484226259209,
90,0.5,1.0,133.86339070000395,134.3631355999969,134.3631355999969,134.3631355999969,134.66282260000298,right,1.0,1,1,326.26333509999677,706694,001,2023-09-07_12h31.53.869,tutorial 1 final,2023.1.3,59.92484226259209,
91,0.5,1.0,135.6956455000036,136.19654479999735,136.19654479999735,136.19654479999735,136.51253989999532,left,-1.0,1,1,325.4799806999945,706694,001,2023-09-07_12h31.53.869,tutorial 1 final,2023.1.3,59.92484226259209,
92,0.5,0.5,136.74605200000224,137.24538039999607,137.24538039999607,137.24538039999607,137.54523240000708,right,0.5,1,1,325.5882724999974,706694,001,2023-09-07_12h31.53.869,tutorial 1 final,2023.1.3,59.92484226259209,
93,0.5,0.5,137.91169780000928,138.4122686000046,138.4122686000046,138.4122686000046,138.71274930000072,right,0.5,0,0,325.75944240001263,706694,001,2023-09-07_12h31.53.869,tutorial 1 final,2023.1.3,59.92484226259209,
94,0.5,1.0,139.24524699999893,139.7451485000056,139.7451485000056,139.7451485000056,140.04538320000574,left,-1.0,1,1,325.62796129999333,706694,001,2023-09-07_12h31.53.869,tutorial 1 final,2023.1.3,59.92484226259209,
95,0.5,1.0,140.4457212999987,140.94563170000038,140.94563170000038,140.94563170000038,141.24533540000266,left,-1.0,1,1,325.71586789999856,706694,001,2023-09-07_12h31.53.869,tutorial 1 final,2023.1.3,59.92484226259209,
96,0.5,1.0,141.7449850999983,142.2451013999962,142.2451013999962,142.2451013999962,142.5457274000073,left,-1.0,1,1,325.6974654000078,706694,001,2023-09-07_12h31.53.869,tutorial 1 final,2023.1.3,59.92484226259209,
97,0.5,0.5,143.01131869999517,143.51140719999967,143.51140719999967,143.51140719999967,143.81206189999648,left,-0.5,1,1,325.7647472999961,706694,001,2023-09-07_12h31.53.869,tutorial 1 final,2023.1.3,59.92484226259209,
98,0.5,0.5,144.3441993000015,144.84464120000484,144.84464120000484,144.84464120000484,145.1447754999972,right,0.5,0,0,325.5782901000057,706694,001,2023-09-07_12h31.53.869,tutorial 1 final,2023.1.3,59.92484226259209,
99,0.5,1.0,145.4953295000014,145.99536719999742,145.99536719999742,145.99536719999742,146.29455130000133,right,1.0,1,1,325.4282678000018,706694,001,2023-09-07_12h31.53.869,tutorial 1 final,2023.1.3,59.92484226259209,
100,0.5,1.0,146.49469910000334,146.99403980000352,146.99403980000352,146.99403980000352,147.29407309999806,left,-1.0,1,1,326.9809544000018,706694,001,2023-09-07_12h31.53.869,tutorial 1 final,2023.1.3,59.92484226259209,
101,0.5,1.0,149.04509569999937,149.54424060000747,149.54424060000747,149.56148699999903,149.8445584000001,right,1.0,1,1,326.2944922000024,706694,001,2023-09-07_12h31.53.869,tutorial 1 final,2023.1.3,59.92484226259209,
102,0.5,0.5,150.91101399999752,151.4097008999961,151.4097008999961,151.4097008999961,151.7101102000015,left,-0.5,1,1,325.5494820000022,706694,001,2023-09-07_12h31.53.869,tutorial 1 final,2023.1.3,59.92484226259209,
103,0.5,0.5,152.0264720999985,152.52791689999867,152.52791689999867,152.52791689999867,152.82689789999858,right,0.5,1,1,325.7129210999992,706694,001,2023-09-07_12h31.53.869,tutorial 1 final,2023.1.3,59.92484226259209,
104,0.5,0.5,153.30997830000706,153.81006720000005,153.81006720000005,153.81006720000005,154.11048930000106,left,-0.5,1,1,325.6640899999911,706694,001,2023-09-07_12h31.53.869,tutorial 1 final,2023.1.3,59.92484226259209,
105,0.5,0.0,154.54310340000666,155.0437951000058,155.0437951000058,155.0437951000058,155.34324250000645,right,0.0,0,0,325.64714880000975,706694,001,2023-09-07_12h31.53.869,tutorial 1 final,2023.1.3,59.92484226259209,
106,0.5,0.5,155.7603444999986,156.2608423000056,156.2608423000056,156.2608423000056,156.57605659999535,left,-0.5,1,1,325.70737040000677,706694,001,2023-09-07_12h31.53.869,tutorial 1 final,2023.1.3,59.92484226259209,
107,0.5,0.5,157.0426989999978,157.54372349999903,157.54372349999903,157.54372349999903,157.84369880000304,right,0.5,1,1,325.6588335999986,706694,001,2023-09-07_12h31.53.869,tutorial 1 final,2023.1.3,59.92484226259209,
108,0.5,0.5,158.27604680000513,158.77691240000422,158.77691240000422,158.77691240000422,159.0766069000092,left,-0.5,1,1,325.61325149999175,706694,001,2023-09-07_12h31.53.869,tutorial 1 final,2023.1.3,59.92484226259209,
109,0.5,0.0,159.4591158999974,159.95941540000786,159.95941540000786,159.95941540000786,160.2600201000023,right,0.0,1,1,325.61508960000356,706694,001,2023-09-07_12h31.53.869,tutorial 1 final,2023.1.3,59.92484226259209,
110,0.5,0.0,160.6436726999964,161.1434711000038,161.1434711000038,161.15926699999545,161.44175710000854,right,0.0,1,1,325.76328440001816,706694,001,2023-09-07_12h31.53.869,tutorial 1 final,2023.1.3,59.92484226259209,
111,0.5,0.0,161.975898100005,162.47604680000222,162.47604680000222,162.47604680000222,162.7760491000081,right,0.0,0,0,325.7426428000035,706694,001,2023-09-07_12h31.53.869,tutorial 1 final,2023.1.3,59.92484226259209,
112,0.5,0.5,163.29190730000846,163.7927486999979,163.7927486999979,163.7927486999979,164.1096755000035,right,0.5,1,1,326.0109514000069,706694,001,2023-09-07_12h31.53.869,tutorial 1 final,2023.1.3,59.92484226259209,
113,0.5,0.5,164.87540649999573,165.35919920000015,165.35919920000015,165.375944600004,165.65748090000125,right,0.5,1,1,325.86614080000436,706694,001,2023-09-07_12h31.53.869,tutorial 1 final,2023.1.3,59.92484226259209,
114,0.5,0.5,166.30894859999535,166.7916089000064,166.7916089000064,166.80869150000217,167.0916581000056,right,0.5,1,1,325.72858560000896,706694,001,2023-09-07_12h31.53.869,tutorial 1 final,2023.1.3,59.92484226259209,
115,0.5,0.0,167.5920557000063,168.09236090000195,168.09236090000195,168.09236090000195,168.39171850000275,left,-0.0,0,0,326.0134759000066,706694,001,2023-09-07_12h31.53.869,tutorial 1 final,2023.1.3,59.92484226259209,
116,0.5,0.5,169.1751235999982,169.6752259000059,169.6752259000059,169.6752259000059,169.97434899999644,left,-0.5,1,1,326.07551680000324,706694,001,2023-09-07_12h31.53.869,tutorial 1 final,2023.1.3,59.92484226259209,
117,0.5,0.5,170.8243366999959,171.3250449000043,171.3250449000043,171.3250449000043,171.62535529999877,left,-0.5,1,1,325.9638322999963,706694,001,2023-09-07_12h31.53.869,tutorial 1 final,2023.1.3,59.92484226259209,
118,0.5,0.5,172.35790689999703,172.8585361000005,172.8585361000005,172.8585361000005,173.15807849999692,left,-0.5,0,0,325.879886499999,706694,001,2023-09-07_12h31.53.869,tutorial 1 final,2023.1.3,59.92484226259209,
119,0.5,1.0,173.807575800005,174.30831960000796,174.30831960000796,174.30831960000796,174.60716189999948,right,1.0,1,1,325.7947569000098,706694,001,2023-09-07_12h31.53.869,tutorial 1 final,2023.1.3,59.92484226259209,
120,0.5,1.0,175.17417140000907,175.67395640000177,175.67395640000177,175.67395640000177,175.9741958000086,right,1.0,1,1,325.5782259000116,706694,001,2023-09-07_12h31.53.869,tutorial 1 final,2023.1.3,59.92484226259209,
121,0.5,1.0,176.32456190000812,176.8240802000073,176.8240802000073,176.8240802000073,177.12426979999873,right,1.0,1,1,325.56409030000214,706694,001,2023-09-07_12h31.53.869,tutorial 1 final,2023.1.3,59.92484226259209,
122,0.5,0.5,177.45821749999595,177.95735880000575,177.95735880000575,177.9740615000046,178.2567532999965,right,0.5,1,1,325.6954070000065,706694,001,2023-09-07_12h31.53.869,tutorial 1 final,2023.1.3,59.92484226259209,
123,0.5,0.5,178.72321640000155,179.22433979999914,179.22433979999914,179.22433979999914,179.52355060000264,right,0.5,1,1,326.76523650001036,706694,001,2023-09-07_12h31.53.869,tutorial 1 final,2023.1.3,59.92484226259209,
124,0.5,0.5,181.0730118000065,181.57399180000357,181.57399180000357,181.57399180000357,181.87202870000328,right,0.5,0,0,325.5699223999982,706694,001,2023-09-07_12h31.53.869,tutorial 1 final,2023.1.3,59.92484226259209,
125,0.5,1.0,182.22335670000757,182.72360630000185,182.72360630000185,182.72360630000185,183.02380550000817,right,1.0,1,1,325.5729834000085,706694,001,2023-09-07_12h31.53.869,tutorial 1 final,2023.1.3,59.92484226259209,
126,0.5,1.0,183.37287469999865,183.87331260000065,183.87331260000065,183.87331260000065,184.17328380000254,right,1.0,0,0,325.6496019000042,706694,001,2023-09-07_12h31.53.869,tutorial 1 final,2023.1.3,59.92484226259209,
127,0.5,1.5,184.74186130000453,185.21046270000807,185.21046270000807,185.2418539000064,185.52135830000043,right,1.5,1,1,341.8986908000079,706694,001,2023-09-07_12h31.53.869,tutorial 1 final,2023.1.3,59.92484226259209,
128,0.5,1.5,202.1871034000069,202.67075320000004,202.67075320000004,202.68810030000168,202.97062790000928,right,1.5,1,1,325.6296375999955,706694,001,2023-09-07_12h31.53.869,tutorial 1 final,2023.1.3,59.92484226259209,
129,0.5,1.5,203.3708656999952,203.87035939999623,203.87035939999623,203.87035939999623,204.17129990000103,right,1.5,1,1,325.31947370000125,706694,001,2023-09-07_12h31.53.869,tutorial 1 final,2023.1.3,59.92484226259209,
130,0.5,1.0,204.269672800001,204.77079730000696,204.77079730000696,204.77079730000696,205.0702289000037,right,1.0,1,1,325.43133150001813,706694,001,2023-09-07_12h31.53.869,tutorial 1 final,2023.1.3,59.92484226259209,
131,0.5,1.0,205.27044490000117,205.7701575999963,205.7701575999963,205.7701575999963,206.06996029999573,left,-1.0,1,1,325.8291032999987,706694,001,2023-09-07_12h31.53.869,tutorial 1 final,2023.1.3,59.92484226259209,
132,0.5,1.0,206.66986460000044,207.16997909999918,207.16997909999918,207.16997909999918,207.470516100002,left,-1.0,1,1,325.6644735000009,706694,001,2023-09-07_12h31.53.869,tutorial 1 final,2023.1.3,59.92484226259209,
133,0.5,0.5,207.90312129999802,208.4026720999973,208.4026720999973,208.4026720999973,208.7029685000016,right,0.5,1,1,325.42418879999605,706694,001,2023-09-07_12h31.53.869,tutorial 1 final,2023.1.3,59.92484226259209,
134,0.5,0.5,208.90293749999546,209.40316640000674,209.40316640000674,209.40316640000674,209.7025302999973,left,-0.5,1,1,325.51449500001036,706694,001,2023-09-07_12h31.53.869,tutorial 1 final,2023.1.3,59.92484226259209,
135,0.5,0.5,209.9866069999989,210.48534169999766,210.48534169999766,210.48534169999766,210.78642499999842,left,-0.5,1,1,325.5558005000057,706694,001,2023-09-07_12h31.53.869,tutorial 1 final,2023.1.3,59.92484226259209,
136,0.5,0.0,211.11907460000657,211.60400000000664,211.60400000000664,211.61850759999652,211.90336670000397,left,-0.0,0,0,325.55906710001,706694,001,2023-09-07_12h31.53.869,tutorial 1 final,2023.1.3,59.92484226259209,
137,0.5,0.5,212.23554670000158,212.73552290000953,212.73552290000953,212.73552290000953,213.03558710000652,left,-0.5,1,1,325.28189940001175,706694,001,2023-09-07_12h31.53.869,tutorial 1 final,2023.1.3,59.92484226259209,
138,0.5,0.5,213.08522629999788,213.58659330000228,213.58659330000228,213.58659330000228,213.8858312000084,left,-0.5,1,1,325.60125250001147,706694,001,2023-09-07_12h31.53.869,tutorial 1 final,2023.1.3,59.92484226259209,
139,0.5,0.5,214.2689379000076,214.7684469000087,214.7684469000087,214.7684469000087,215.0691969000036,right,0.5,1,1,327.21475400000054,706694,001,2023-09-07_12h31.53.869,tutorial 1 final,2023.1.3,59.92484226259209,
140,0.5,0.0,217.05176689999644,217.55267659999663,217.55267659999663,217.55267659999663,217.85264209999877,left,-0.0,0,0,325.63003889999527,706694,001,2023-09-07_12h31.53.869,tutorial 1 final,2023.1.3,59.92484226259209,
141,0.5,0.5,218.2519190000021,218.7517896000063,218.7517896000063,218.7517896000063,219.05145460000494,left,-0.5,1,1,325.5782171000028,706694,001,2023-09-07_12h31.53.869,tutorial 1 final,2023.1.3,59.92484226259209,
142,0.5,0.5,219.4016685999959,219.9021558999957,219.9021558999957,219.9021558999957,220.20153570000548,right,0.5,0,0,325.6468733000074,706694,001,2023-09-07_12h31.53.869,tutorial 1 final,2023.1.3,59.92484226259209,
143,0.5,1.0,220.61798270000145,221.1189857999998,221.1189857999998,221.1189857999998,221.41807020000124,right,1.0,1,1,325.61390660000325,706694,001,2023-09-07_12h31.53.869,tutorial 1 final,2023.1.3,59.92484226259209,
144,0.5,1.0,221.8010185000021,222.30214690000867,222.30214690000867,222.30214690000867,222.60191290000512,right,1.0,0,0,327.28042580001056,706694,001,2023-09-07_12h31.53.869,tutorial 1 final,2023.1.3,59.92484226259209,
145,0.5,1.5,224.65162679999776,225.15090740000596,225.15090740000596,225.15090740000596,225.45063200000732,left,-1.5,1,1,325.6972741000063,706694,001,2023-09-07_12h31.53.869,tutorial 1 final,2023.1.3,59.92484226259209,
146,0.5,1.5,225.91716029999952,226.41671150000184,226.41671150000184,226.41671150000184,226.71691440000723,left,-1.5,1,1,325.5456714000029,706694,001,2023-09-07_12h31.53.869,tutorial 1 final,2023.1.3,59.92484226259209,
147,0.5,1.5,227.03487630000745,227.53451810000115,227.53451810000115,227.53451810000115,227.83353319999878,left,-1.5,1,1,325.65989690000424,706694,001,2023-09-07_12h31.53.869,tutorial 1 final,2023.1.3,59.92484226259209,
148,0.5,1.0,228.26690240000607,228.7683868000022,228.7683868000022,228.7683868000022,229.06787379999878,left,-1.0,1,1,325.8914214000106,706694,001,2023-09-07_12h31.53.869,tutorial 1 final,2023.1.3,59.92484226259209,
149,0.5,1.0,229.73374490000424,230.23404840000148,230.23404840000148,230.23404840000148,230.53302960000292,right,1.0,1,1,325.5812981999916,706694,001,2023-09-07_12h31.53.869,tutorial 1 final,2023.1.3,59.92484226259209,
150,0.5,1.0,230.88328570000886,231.38327170000412,231.38327170000412,231.38327170000412,231.68329680000897,left,-1.0,1,1,325.321078900015,706694,001,2023-09-07_12h31.53.869,tutorial 1 final,2023.1.3,59.92484226259209,
151,0.5,0.5,231.78277839999646,232.28323539999838,232.28323539999838,232.28323539999838,232.5834077000036,left,-0.5,0,0,325.9645410999947,706694,001,2023-09-07_12h31.53.869,tutorial 1 final,2023.1.3,59.92484226259209,
152,0.5,1.0,233.316213099999,233.81673269999737,233.81673269999737,233.81673269999737,234.116379900006,right,1.0,1,1,325.53928909999377,706694,001,2023-09-07_12h31.53.869,tutorial 1 final,2023.1.3,59.92484226259209,
153,0.5,1.0,234.4328397000063,234.93293569999514,234.93293569999514,234.93293569999514,235.23279829999956,left,-1.0,1,1,325.61404500000936,706694,001,2023-09-07_12h31.53.869,tutorial 1 final,2023.1.3,59.92484226259209,
154,0.5,1.0,235.6156864000077,236.1165447000094,236.1165447000094,236.1165447000094,236.43321420000575,left,-1.0,1,1,325.59686799999326,706694,001,2023-09-07_12h31.53.869,tutorial 1 final,2023.1.3,59.92484226259209,
155,0.5,0.5,236.78276660000847,237.28288339999563,237.28288339999563,237.28288339999563,237.5832775000017,right,0.5,1,1,325.743332300015,706694,001,2023-09-07_12h31.53.869,tutorial 1 final,2023.1.3,59.92484226259209,
156,0.5,0.5,238.09983049999573,238.59959979999985,238.59959979999985,238.59959979999985,238.89881660000538,left,-0.5,1,1,325.59445000000414,706694,001,2023-09-07_12h31.53.869,tutorial 1 final,2023.1.3,59.92484226259209,
157,0.5,0.5,239.26522129999648,239.76652370000375,239.76652370000375,239.76652370000375,240.06561150000198,right,0.5,1,1,325.47943090001354,706694,001,2023-09-07_12h31.53.869,tutorial 1 final,2023.1.3,59.92484226259209,
158,0.5,0.0,240.31557990000874,240.8152618000022,240.8152618000022,240.8152618000022,241.11588949999714,left,-0.0,1,1,325.5812008000066,706694,001,2023-09-07_12h31.53.869,tutorial 1 final,2023.1.3,59.92484226259209,
159,0.5,0.0,241.46520380000584,241.96604559999832,241.96604559999832,241.96604559999832,242.2648748000065,left,-0.0,1,1,325.48016630001075,706694,001,2023-09-07_12h31.53.869,tutorial 1 final,2023.1.3,59.92484226259209,
160,0.5,0.0,242.5157973000023,243.0154121000087,243.0154121000087,243.0154121000087,243.31543620000593,left,-0.0,1,1,325.49547920000623,706694,001,2023-09-07_12h31.53.869,tutorial 1 final,2023.1.3,59.92484226259209,
161,0.5,0.0,243.58188599999994,244.08285459999752,244.08285459999752,244.08285459999752,244.3815612000035,right,0.0,0,0,325.8927415999933,706694,001,2023-09-07_12h31.53.869,tutorial 1 final,2023.1.3,59.92484226259209,
162,0.5,0.5,245.04869140000665,245.5501149000047,245.5501149000047,245.5501149000047,245.86492920000455,right,0.5,0,0,325.6126872000168,706694,001,2023-09-07_12h31.53.869,tutorial 1 final,2023.1.3,59.92484226259209,
163,0.5,1.0,246.23091399999976,246.73219809999864,246.73219809999864,246.73219809999864,247.0301271000062,right,1.0,0,0,325.6615208000003,706694,001,2023-09-07_12h31.53.869,tutorial 1 final,2023.1.3,59.92484226259209,
164,0.5,1.5,247.4645923000062,247.9657154000015,247.9657154000015,247.9657154000015,248.2810165999981,right,1.5,1,1,325.53717029999825,706694,001,2023-09-07_12h31.53.869,tutorial 1 final,2023.1.3,59.92484226259209,
165,0.5,1.5,248.58202100000926,249.081256400008,249.081256400008,249.081256400008,249.3813169000059,left,-1.5,1,1,325.596996200009,706694,001,2023-09-07_12h31.53.869,tutorial 1 final,2023.1.3,59.92484226259209,
166,0.5,1.5,249.74827650000225,250.24736609999673,250.24736609999673,250.24736609999673,250.547384400008,left,-1.5,0,0,325.3475913000002,706694,001,2023-09-07_12h31.53.869,tutorial 1 final,2023.1.3,59.92484226259209,
167,0.5,2.0,250.66423540000687,251.16497670000535,251.16497670000535,251.16497670000535,251.46391010000661,left,-2.0,1,1,325.65071549999993,706694,001,2023-09-07_12h31.53.869,tutorial 1 final,2023.1.3,59.92484226259209,
168,0.5,2.0,251.89742970000952,252.39720690000104,252.39720690000104,252.39720690000104,252.69730329999584,right,2.0,1,1,325.44541529999697,706694,001,2023-09-07_12h31.53.869,tutorial 1 final,2023.1.3,59.92484226259209,
169,0.5,2.0,252.91370689999894,253.41438590000325,253.41438590000325,253.41438590000325,253.7145326000027,left,-2.0,1,1,325.3978754000127,706694,001,2023-09-07_12h31.53.869,tutorial 1 final,2023.1.3,59.92484226259209,
170,0.5,1.5,253.88050179999846,254.3808269000001,254.3808269000001,254.3808269000001,254.6811083000066,left,-1.5,1,1,325.5801214000094,706694,001,2023-09-07_12h31.53.869,tutorial 1 final,2023.1.3,59.92484226259209,
171,0.5,1.5,255.03040440000768,255.53020789999573,255.53020789999573,255.53020789999573,255.83066099999996,right,1.5,1,1,325.38045270000293,706694,001,2023-09-07_12h31.53.869,tutorial 1 final,2023.1.3,59.92484226259209,
172,0.5,1.5,255.97968050000782,256.4802934000036,256.4802934000036,256.4802934000036,256.7791489000083,left,-1.5,1,1,325.36468110000715,706694,001,2023-09-07_12h31.53.869,tutorial 1 final,2023.1.3,59.92484226259209,
173,0.5,1.0,256.9131256999972,257.412622200005,257.412622200005,257.412622200005,257.71389470000577,left,-1.0,1,1,325.343409299996,706694,001,2023-09-07_12h31.53.869,tutorial 1 final,2023.1.3,59.92484226259209,
174,0.5,1.0,257.83018459999585,258.3299667999963,258.3299667999963,258.3299667999963,258.62958880000224,right,1.0,1,1,326.11474600000656,706694,001,2023-09-07_12h31.53.869,tutorial 1 final,2023.1.3,59.92484226259209,
175,0.5,1.0,259.5294184000086,260.02970189999905,260.02970189999905,260.02970189999905,260.329842200008,left,-1.0,1,1,325.396668100002,706694,001,2023-09-07_12h31.53.869,tutorial 1 final,2023.1.3,59.92484226259209,
176,0.5,0.5,260.49684479999996,260.99614519999886,260.99614519999886,260.99614519999886,261.2964023999957,left,-0.5,1,1,325.4203875000094,706694,001,2023-09-07_12h31.53.869,tutorial 1 final,2023.1.3,59.92484226259209,
177,0.5,0.5,261.4962139999989,261.9969295000046,261.9969295000046,261.9969295000046,262.29605440000887,left,-0.5,1,1,325.412891999993,706694,001,2023-09-07_12h31.53.869,tutorial 1 final,2023.1.3,59.92484226259209,
178,0.5,0.5,262.478743700005,262.97905930000707,262.97905930000707,262.97905930000707,263.2799631999951,right,0.5,1,1,325.36546530001215,706694,001,2023-09-07_12h31.53.869,tutorial 1 final,2023.1.3,59.92484226259209,
179,0.5,0.0,263.41234140000597,263.9124564000085,263.9124564000085,263.9124564000085,264.21224219999567,right,0.0,0,0,325.29448490000505,706694,001,2023-09-07_12h31.53.869,tutorial 1 final,2023.1.3,59.92484226259209,
180,0.5,0.5,264.27907830000913,264.77965910000785,264.77965910000785,264.77965910000785,265.07853610000166,right,0.5,0,0,325.48901250000927,706694,001,2023-09-07_12h31.53.869,tutorial 1 final,2023.1.3,59.92484226259209,
181,0.5,1.0,265.34479380000266,265.8455008000019,265.8455008000019,265.8455008000019,266.1454192000092,right,1.0,0,0,325.3087288000097,706694,001,2023-09-07_12h31.53.869,tutorial 1 final,2023.1.3,59.92484226259209,
182,0.5,1.5,266.2281163000007,266.7293728000077,266.7293728000077,266.7293728000077,267.0460458000016,right,1.5,1,1,325.3431494999968,706694,001,2023-09-07_12h31.53.869,tutorial 1 final,2023.1.3,59.92484226259209,
183,0.5,1.5,267.14582459999656,267.62939509999705,267.62939509999705,267.6458966000064,267.9288106000022,right,1.5,1,1,325.53693870001007,706694,001,2023-09-07_12h31.53.869,tutorial 1 final,2023.1.3,59.92484226259209,
184,0.5,1.5,268.2447409000015,268.7457762999984,268.7457762999984,268.7457762999984,269.04509510000935,right,1.5,1,1,325.46320430000196,706694,001,2023-09-07_12h31.53.869,tutorial 1 final,2023.1.3,59.92484226259209,
185,0.5,1.0,269.278275100005,269.7790277000022,269.7790277000022,269.7790277000022,270.0790798999951,left,-1.0,1,1,325.5136065000115,706694,001,2023-09-07_12h31.53.869,tutorial 1 final,2023.1.3,59.92484226259209,
186,0.5,1.0,270.3620712999982,270.86239110000315,270.86239110000315,270.86239110000315,271.1621795999963,right,1.0,1,1,325.3519738000032,706694,001,2023-09-07_12h31.53.869,tutorial 1 final,2023.1.3,59.92484226259209,
187,0.5,1.0,271.2947359999962,271.7952268000081,271.7952268000081,271.7952268000081,272.0944651000027,left,-1.0,1,1,325.31197429999884,706694,001,2023-09-07_12h31.53.869,tutorial 1 final,2023.1.3,59.92484226259209,
188,0.5,0.5,272.17816900000616,272.67799650000234,272.67799650000234,272.67799650000234,272.97687620000215,right,0.5,1,1,325.24687420000555,706694,001,2023-09-07_12h31.53.869,tutorial 1 final,2023.1.3,59.92484226259209,
189,0.5,0.5,272.99510090000695,273.49488810000184,273.49488810000184,273.5106553000078,273.81144140000106,right,0.5,0,0,325.2787812000024,706694,001,2023-09-07_12h31.53.869,tutorial 1 final,2023.1.3,59.92484226259209,
190,0.5,1.0,273.8457335999992,274.3453048000083,274.3453048000083,274.3453048000083,274.64544249999744,left,-1.0,1,1,326.48004900000524,706694,001,2023-09-07_12h31.53.869,tutorial 1 final,2023.1.3,59.92484226259209,
191,0.5,1.0,275.89407870000286,276.3944014000008,276.3944014000008,276.3944014000008,276.69423700000334,left,-1.0,1,1,325.5140117000119,706694,001,2023-09-07_12h31.53.869,tutorial 1 final,2023.1.3,59.92484226259209,
192,0.5,1.0,276.9775568000041,277.476957100007,277.476957100007,277.476957100007,277.7777008999983,right,1.0,1,1,325.475898699995,706694,001,2023-09-07_12h31.53.869,tutorial 1 final,2023.1.3,59.92484226259209,
193,0.5,0.5,278.0277741000027,278.52677880000556,278.52677880000556,278.52677880000556,278.8269120000041,right,0.5,1,1,325.5478131000127,706694,001,2023-09-07_12h31.53.869,tutorial 1 final,2023.1.3,59.92484226259209,
194,0.5,0.5,279.1445861999964,279.6275339999993,279.6275339999993,279.6442238000018,279.9267050000053,left,-0.5,1,1,325.61422609999136,706694,001,2023-09-07_12h31.53.869,tutorial 1 final,2023.1.3,59.92484226259209,
195,0.5,0.5,280.311071899996,280.8105388999975,280.8105388999975,280.8268805999978,281.1102249999967,left,-0.5,0,0,325.743512999994,706694,001,2023-09-07_12h31.53.869,tutorial 1 final,2023.1.3,59.92484226259209,
196,0.5,1.0,281.62686170000234,282.127192800006,282.127192800006,282.127192800006,282.4262136000034,right,1.0,1,1,325.4642462000047,706694,001,2023-09-07_12h31.53.869,tutorial 1 final,2023.1.3,59.92484226259209,
197,0.5,1.0,282.66035750000447,283.1600441000046,283.1600441000046,283.1600441000046,283.4598570000089,right,1.0,1,1,325.43046320001304,706694,001,2023-09-07_12h31.53.869,tutorial 1 final,2023.1.3,59.92484226259209,
198,0.5,1.0,283.6593254000036,284.1606237000087,284.1606237000087,284.1606237000087,284.45979200000875,left,-1.0,0,0,325.429375000007,706694,001,2023-09-07_12h31.53.869,tutorial 1 final,2023.1.3,59.92484226259209,
199,0.5,1.5,284.6596237000049,285.16053880000254,285.16053880000254,285.16053880000254,285.4596287000022,left,-1.5,1,1,325.51377340001636,706694,001,2023-09-07_12h31.53.869,tutorial 1 final,2023.1.3,59.92484226259209,
