pos,corr_resp,trials.thisRepN,trials.thisTrialN,trials.thisN,trials.thisIndex,trials_2.thisRepN,trials_2.thisTrialN,trials_2.thisN,trials_2.thisIndex,fixation.started,line1.started,line2.started,line3.started,line4.started,fixation.stopped,probe.started,key_resp.started,key_resp.keys,key_resp.corr,key_resp.rt,key_resp.duration,participant,session,date,expName,psychopyVersion,frameRate,
-50,x,0,0,0,0,,,,,13.629071800038218,14.630708300042897,14.630708300042897,14.630708300042897,14.630708300042897,14.643318299902603,15.626523399958387,15.626523399958387,x,1,0.794530600309372,None,khushi,001,2023-10-09_11h43.49.482,sequential_learning,2023.1.3,60.47843273945566,
150,v,0,1,1,1,,,,,16.44304719986394,17.44298639986664,17.44298639986664,17.44298639986664,17.44298639986664,17.44298639986664,18.442987199872732,18.442987199872732,v,1,0.8351796001661569,None,khushi,001,2023-10-09_11h43.49.482,sequential_learning,2023.1.3,60.47843273945566,
50,c,0,2,2,2,,,,,19.310433899983764,20.309112099930644,20.309112099930644,20.309112099930644,20.309112099930644,20.325697399908677,21.309524999931455,21.309524999931455,c,1,0.7081217002123594,None,khushi,001,2023-10-09_11h43.49.482,sequential_learning,2023.1.3,60.47843273945566,
-150,z,0,3,3,3,,,,,22.042252599960193,23.042050499934703,23.042050499934703,23.042050499934703,23.042050499934703,23.042050499934703,24.04189609992318,24.04189609992318,z,1,0.2684597000479698,None,khushi,001,2023-10-09_11h43.49.482,sequential_learning,2023.1.3,60.47843273945566,
-50,x,1,0,4,0,,,,,24.34253739984706,25.32526159984991,25.32526159984991,25.32526159984991,25.32526159984991,25.341647200053558,26.342393500031903,26.342393500031903,x,1,0.057324600173160434,None,khushi,001,2023-10-09_11h43.49.482,sequential_learning,2023.1.3,60.47843273945566,
150,v,1,1,5,1,,,,,26.426569999894127,27.42568779992871,27.42568779992871,27.42568779992871,27.42568779992871,27.442258999915794,28.424626799998805,28.424626799998805,v,1,0.05623030010610819,None,khushi,001,2023-10-09_11h43.49.482,sequential_learning,2023.1.3,60.47843273945566,
50,c,1,2,6,2,,,,,28.50871149986051,29.508634599857032,29.508634599857032,29.508634599857032,29.508634599857032,29.508634599857032,30.508151399903,30.508151399903,c,1,0.23423609999008477,None,khushi,001,2023-10-09_11h43.49.482,sequential_learning,2023.1.3,60.47843273945566,
-150,z,1,3,7,3,,,,,30.77488589985296,31.774952600011602,31.774952600011602,31.774952600011602,31.774952600011602,31.774952600011602,32.774284600047395,32.774284600047395,z,1,0.24150070012547076,None,khushi,001,2023-10-09_11h43.49.482,sequential_learning,2023.1.3,60.47843273945566,
-50,x,2,0,8,0,,,,,33.04113559983671,34.04081749985926,34.04081749985926,34.04081749985926,34.04081749985926,34.04081749985926,35.040772299980745,35.040772299980745,x,1,0.2881402000784874,None,khushi,001,2023-10-09_11h43.49.482,sequential_learning,2023.1.3,60.47843273945566,
150,v,2,1,9,1,,,,,35.3575648998376,36.35733959986828,36.35733959986828,36.35733959986828,36.35733959986828,36.35733959986828,37.35705400002189,37.35705400002189,v,1,0.2813097001053393,None,khushi,001,2023-10-09_11h43.49.482,sequential_learning,2023.1.3,60.47843273945566,
50,c,2,2,10,2,,,,,37.65701760002412,38.657108899904415,38.657108899904415,38.657108899904415,38.657108899904415,38.657108899904415,39.65708699985407,39.65708699985407,c,1,0.255151400109753,None,khushi,001,2023-10-09_11h43.49.482,sequential_learning,2023.1.3,60.47843273945566,
-150,z,2,3,11,3,,,,,39.93962990003638,40.94009179994464,40.94009179994464,40.94009179994464,40.94009179994464,40.94009179994464,41.93976449989714,41.93976449989714,z,1,0.25626830011606216,None,khushi,001,2023-10-09_11h43.49.482,sequential_learning,2023.1.3,60.47843273945566,
-50,x,3,0,12,0,,,,,42.22307639988139,43.223370499908924,43.223370499908924,43.223370499908924,43.223370499908924,43.223370499908924,44.22295710002072,44.22295710002072,x,1,0.2997389000374824,None,khushi,001,2023-10-09_11h43.49.482,sequential_learning,2023.1.3,60.47843273945566,
150,v,3,1,13,1,,,,,44.53950009983964,45.53930009994656,45.53930009994656,45.53930009994656,45.53930009994656,45.53930009994656,46.53942080005072,46.53942080005072,v,1,0.2445519003085792,None,khushi,001,2023-10-09_11h43.49.482,sequential_learning,2023.1.3,60.47843273945566,
50,c,3,2,14,2,,,,,46.80563219985925,47.805412400048226,47.805412400048226,47.805412400048226,47.805412400048226,47.805412400048226,48.80592349986546,48.80592349986546,c,1,0.2564251001458615,None,khushi,001,2023-10-09_11h43.49.482,sequential_learning,2023.1.3,60.47843273945566,
-150,z,3,3,15,3,,,,,49.08897549984977,50.0890685999766,50.0890685999766,50.0890685999766,50.0890685999766,50.0890685999766,51.07192949997261,51.07192949997261,z,1,0.24127250001765788,None,khushi,001,2023-10-09_11h43.49.482,sequential_learning,2023.1.3,60.47843273945566,
-50,x,4,0,16,0,,,,,51.338211099850014,52.33818269986659,52.33818269986659,52.33818269986659,52.33818269986659,52.33818269986659,53.33798469998874,53.33798469998874,x,1,0.21296890010125935,None,khushi,001,2023-10-09_11h43.49.482,sequential_learning,2023.1.3,60.47843273945566,
150,v,4,1,17,1,,,,,53.57245650002733,54.57127059996128,54.57127059996128,54.57127059996128,54.57127059996128,54.5885187999811,55.5719492000062,55.5719492000062,v,1,0.24912250018678606,None,khushi,001,2023-10-09_11h43.49.482,sequential_learning,2023.1.3,60.47843273945566,
50,c,4,2,18,2,,,,,55.83742789993994,56.83764129993506,56.83764129993506,56.83764129993506,56.83764129993506,56.83764129993506,57.837572999997064,57.837572999997064,c,1,0.24010270019061863,None,khushi,001,2023-10-09_11h43.49.482,sequential_learning,2023.1.3,60.47843273945566,
-150,z,4,3,19,3,,,,,58.10429829987697,59.10758259985596,59.10758259985596,59.10758259985596,59.10758259985596,59.10758259985596,60.103959099855274,60.103959099855274,z,1,0.46213500015437603,None,khushi,001,2023-10-09_11h43.49.482,sequential_learning,2023.1.3,60.47843273945566,
-50,x,5,0,20,0,,,,,60.58693109988235,61.57057789992541,61.57057789992541,61.57057789992541,61.57057789992541,61.58694899990223,62.58734910003841,62.58734910003841,x,1,0.24923160020262003,None,khushi,001,2023-10-09_11h43.49.482,sequential_learning,2023.1.3,60.47843273945566,
150,v,5,1,21,1,,,,,62.853686299873516,63.853241099976,63.853241099976,63.853241099976,63.853241099976,63.853241099976,64.85359829990193,64.85359829990193,v,1,0.24507650011219084,None,khushi,001,2023-10-09_11h43.49.482,sequential_learning,2023.1.3,60.47843273945566,
50,c,5,2,22,2,,,,,65.12011520005763,66.11961489985697,66.11961489985697,66.11961489985697,66.11961489985697,66.11961489985697,67.12037959997542,67.12037959997542,c,1,0.27343710022978485,None,khushi,001,2023-10-09_11h43.49.482,sequential_learning,2023.1.3,60.47843273945566,
-150,z,5,3,23,3,,,,,67.41981029999442,68.42004260001704,68.42004260001704,68.42004260001704,68.42004260001704,68.42004260001704,69.41931599983945,69.41931599983945,z,1,0.2702135001309216,None,khushi,001,2023-10-09_11h43.49.482,sequential_learning,2023.1.3,60.47843273945566,
-50,x,6,0,24,0,,,,,69.7193698999472,70.71921300003305,70.71921300003305,70.71921300003305,70.71921300003305,70.71921300003305,71.71947250002995,71.71947250002995,x,1,0.2325510000810027,None,khushi,001,2023-10-09_11h43.49.482,sequential_learning,2023.1.3,60.47843273945566,
150,v,6,1,25,1,,,,,71.96916330000386,72.96892929985188,72.96892929985188,72.96892929985188,72.96892929985188,72.96892929985188,73.96945449989289,73.96945449989289,v,1,0.24485030001960695,None,khushi,001,2023-10-09_11h43.49.482,sequential_learning,2023.1.3,60.47843273945566,
50,c,6,2,26,2,,,,,74.23513070004992,75.23539869999513,75.23539869999513,75.23539869999513,75.23539869999513,75.23539869999513,76.21844960004091,76.21844960004091,c,1,0.2904278999194503,None,khushi,001,2023-10-09_11h43.49.482,sequential_learning,2023.1.3,60.47843273945566,
-150,z,6,3,27,3,,,,,76.53519379999489,77.51986090000719,77.51986090000719,77.51986090000719,77.51986090000719,77.53527870005928,78.53506219992414,78.53506219992414,z,1,0.2765226000919938,None,khushi,001,2023-10-09_11h43.49.482,sequential_learning,2023.1.3,60.47843273945566,
-50,x,7,0,28,0,,,,,78.83479039999656,79.83476509992033,79.83476509992033,79.83476509992033,79.83476509992033,79.83476509992033,80.8344872999005,80.8344872999005,x,1,0.2725731001701206,None,khushi,001,2023-10-09_11h43.49.482,sequential_learning,2023.1.3,60.47843273945566,
150,v,7,1,29,1,,,,,81.13424649997614,82.13476719986647,82.13476719986647,82.13476719986647,82.13476719986647,82.13476719986647,83.13428790005855,83.13428790005855,v,1,0.3698930002283305,None,khushi,001,2023-10-09_11h43.49.482,sequential_learning,2023.1.3,60.47843273945566,
50,c,7,2,30,2,,,,,83.53396010003053,84.53405869985,84.53405869985,84.53405869985,84.53405869985,84.53405869985,85.53374999994412,85.53374999994412,c,1,0.22542740032076836,None,khushi,001,2023-10-09_11h43.49.482,sequential_learning,2023.1.3,60.47843273945566,
-150,z,7,3,31,3,,,,,85.78387439996004,86.78380679991096,86.78380679991096,86.78380679991096,86.78380679991096,86.78380679991096,87.78401569998823,87.78401569998823,z,1,0.2676258999854326,None,khushi,001,2023-10-09_11h43.49.482,sequential_learning,2023.1.3,60.47843273945566,
-50,x,8,0,32,0,,,,,88.08380519994535,89.0835941999685,89.0835941999685,89.0835941999685,89.0835941999685,89.0835941999685,90.08309579989873,90.08309579989873,x,1,0.3886369001120329,None,khushi,001,2023-10-09_11h43.49.482,sequential_learning,2023.1.3,60.47843273945566,
150,v,8,1,33,1,,,,,90.50001779990271,91.49989810003899,91.49989810003899,91.49989810003899,91.49989810003899,91.49989810003899,92.499639299931,92.499639299931,v,1,0.37345880013890564,None,khushi,001,2023-10-09_11h43.49.482,sequential_learning,2023.1.3,60.47843273945566,
50,c,8,2,34,2,,,,,92.89948769984767,93.89938579988666,93.89938579988666,93.89938579988666,93.89938579988666,93.89938579988666,94.89922659983858,94.89922659983858,c,1,0.4648597000632435,None,khushi,001,2023-10-09_11h43.49.482,sequential_learning,2023.1.3,60.47843273945566,
-150,z,8,3,35,3,,,,,95.38259609998204,96.38249309989624,96.38249309989624,96.38249309989624,96.38249309989624,96.38249309989624,97.38264709990472,97.38264709990472,z,1,0.36387440003454685,None,khushi,001,2023-10-09_11h43.49.482,sequential_learning,2023.1.3,60.47843273945566,
-50,x,9,0,36,0,,,,,97.7659360000398,98.76597299985588,98.76597299985588,98.76597299985588,98.76597299985588,98.76597299985588,99.7655237999279,99.7655237999279,x,1,0.5098969002719969,None,khushi,001,2023-10-09_11h43.49.482,sequential_learning,2023.1.3,60.47843273945566,
150,v,9,1,37,1,,,,,100.29846929991618,101.29843540000729,101.29843540000729,101.29843540000729,101.29843540000729,101.29843540000729,102.2981821000576,102.2981821000576,v,1,0.496120200259611,None,khushi,001,2023-10-09_11h43.49.482,sequential_learning,2023.1.3,60.47843273945566,
50,c,9,2,38,2,,,,,102.81524729984812,103.81521210004576,103.81521210004576,103.81521210004576,103.81521210004576,103.81521210004576,104.81427079997957,104.81427079997957,c,1,0.31154780020006,None,khushi,001,2023-10-09_11h43.49.482,sequential_learning,2023.1.3,60.47843273945566,
-150,z,9,3,39,3,,,,,105.14776910003275,106.13110759994015,106.13110759994015,106.13110759994015,106.13110759994015,106.14801270002499,107.14760819985531,107.14760819985531,z,1,0.2597370999865234,None,khushi,001,2023-10-09_11h43.49.482,sequential_learning,2023.1.3,60.47843273945566,
-50,x,10,0,40,0,,,,,107.43088969984092,108.4310210000258,108.4310210000258,108.4310210000258,108.4310210000258,108.4310210000258,109.43135949992575,109.43135949992575,x,1,0.48358200024813414,None,khushi,001,2023-10-09_11h43.49.482,sequential_learning,2023.1.3,60.47843273945566,
150,v,10,1,41,1,,,,,109.94711329997517,110.93087769998237,110.93087769998237,110.93087769998237,110.93087769998237,110.94730270002037,111.94696390000172,111.94696390000172,v,1,0.2951463002245873,None,khushi,001,2023-10-09_11h43.49.482,sequential_learning,2023.1.3,60.47843273945566,
50,c,10,2,42,2,,,,,112.26384859997779,113.26360789989121,113.26360789989121,113.26360789989121,113.26360789989121,113.26360789989121,114.26368209999055,114.26368209999055,c,1,0.2734417002648115,None,khushi,001,2023-10-09_11h43.49.482,sequential_learning,2023.1.3,60.47843273945566,
-150,z,10,3,43,3,,,,,114.56299429992214,115.56354409991764,115.56354409991764,115.56354409991764,115.56354409991764,115.56354409991764,116.54609139985405,116.54609139985405,z,1,0.2701470002066344,None,khushi,001,2023-10-09_11h43.49.482,sequential_learning,2023.1.3,60.47843273945566,
-50,x,11,0,44,0,,,,,116.846422099974,117.84655250003561,117.84655250003561,117.84655250003561,117.84655250003561,117.84655250003561,118.84580909996293,118.84580909996293,x,1,0.7792937001213431,None,khushi,001,2023-10-09_11h43.49.482,sequential_learning,2023.1.3,60.47843273945566,
150,v,11,1,45,1,,,,,119.6460667999927,120.6296814000234,120.6296814000234,120.6296814000234,120.6296814000234,120.64688359992579,121.64580459985882,121.64580459985882,v,1,0.5374708001036197,None,khushi,001,2023-10-09_11h43.49.482,sequential_learning,2023.1.3,60.47843273945566,
50,c,11,2,46,2,,,,,122.21217749989592,123.19582200003788,123.19582200003788,123.19582200003788,123.19582200003788,123.21243259985931,124.21238719997928,124.21238719997928,c,1,0.3908735001459718,None,khushi,001,2023-10-09_11h43.49.482,sequential_learning,2023.1.3,60.47843273945566,
-150,z,11,3,47,3,,,,,124.62825899990276,125.62887079990469,125.62887079990469,125.62887079990469,125.62887079990469,125.62887079990469,126.62860109983012,126.62860109983012,z,1,0.3771333002950996,None,khushi,001,2023-10-09_11h43.49.482,sequential_learning,2023.1.3,60.47843273945566,
-50,x,12,0,48,0,,,,,127.02828189986758,128.02815649984404,128.02815649984404,128.02815649984404,128.02815649984404,128.02815649984404,129.02814219985157,129.02814219985157,x,1,0.30656970012933016,None,khushi,001,2023-10-09_11h43.49.482,sequential_learning,2023.1.3,60.47843273945566,
150,v,12,1,49,1,,,,,129.36163849988952,130.36108809988946,130.36108809988946,130.36108809988946,130.36108809988946,130.36108809988946,131.3613399998285,131.3613399998285,v,1,0.22267269995063543,None,khushi,001,2023-10-09_11h43.49.482,sequential_learning,2023.1.3,60.47843273945566,
50,c,12,2,50,2,,,,,131.61163659999147,132.61100739985704,132.61100739985704,132.61100739985704,132.61100739985704,132.61100739985704,133.6110135000199,133.6110135000199,c,1,0.27195810014382005,None,khushi,001,2023-10-09_11h43.49.482,sequential_learning,2023.1.3,60.47843273945566,
-150,z,12,3,51,3,,,,,133.91142569994554,134.91066999989562,134.91066999989562,134.91066999989562,134.91066999989562,134.91066999989562,135.89400209998712,135.89400209998712,z,1,0.43355200020596385,None,khushi,001,2023-10-09_11h43.49.482,sequential_learning,2023.1.3,60.47843273945566,
-50,x,13,0,52,0,,,,,136.34402569988742,137.34342179982923,137.34342179982923,137.34342179982923,137.34342179982923,137.34342179982923,138.34342979989015,138.34342979989015,x,1,0.25536870025098324,None,khushi,001,2023-10-09_11h43.49.482,sequential_learning,2023.1.3,60.47843273945566,
150,v,13,1,53,1,,,,,138.62672549998388,139.610160500044,139.610160500044,139.610160500044,139.610160500044,139.62687529996037,140.62694630003534,140.62694630003534,v,1,0.34713460016064346,None,khushi,001,2023-10-09_11h43.49.482,sequential_learning,2023.1.3,60.47843273945566,
50,c,13,2,54,2,,,,,140.9934039998334,141.99369359994307,141.99369359994307,141.99369359994307,141.99369359994307,141.99369359994307,142.9929149998352,142.9929149998352,c,1,0.22980330022983253,None,khushi,001,2023-10-09_11h43.49.482,sequential_learning,2023.1.3,60.47843273945566,
-150,z,13,3,55,3,,,,,143.24294899986126,144.24279639986344,144.24279639986344,144.24279639986344,144.24279639986344,144.24279639986344,145.22623889986426,145.22623889986426,z,1,0.30999850016087294,None,khushi,001,2023-10-09_11h43.49.482,sequential_learning,2023.1.3,60.47843273945566,
-50,x,14,0,56,0,,,,,145.5590518999379,146.55955579993315,146.55955579993315,146.55955579993315,146.55955579993315,146.55955579993315,147.55953069985844,147.55953069985844,c,0,0.395431200042367,None,khushi,001,2023-10-09_11h43.49.482,sequential_learning,2023.1.3,60.47843273945566,
150,v,14,1,57,1,,,,,147.97547880001366,148.97537949983962,148.97537949983962,148.97537949983962,148.97537949983962,148.97537949983962,149.97545709996484,149.97545709996484,v,1,0.7268827001098543,None,khushi,001,2023-10-09_11h43.49.482,sequential_learning,2023.1.3,60.47843273945566,
50,c,14,2,58,2,,,,,150.72564519988373,151.7263201000169,151.7263201000169,151.7263201000169,151.7263201000169,151.7263201000169,152.72470799996518,152.72470799996518,c,1,0.47838740004226565,None,khushi,001,2023-10-09_11h43.49.482,sequential_learning,2023.1.3,60.47843273945566,
-150,z,14,3,59,3,,,,,153.2256698999554,154.20831949985586,154.20831949985586,154.20831949985586,154.20831949985586,154.22504259995185,155.20790529996157,155.20790529996157,z,1,0.2869907000567764,None,khushi,001,2023-10-09_11h43.49.482,sequential_learning,2023.1.3,60.47843273945566,
-50,x,15,0,60,0,,,,,155.52478579990566,156.52465749997646,156.52465749997646,156.52465749997646,156.52465749997646,156.52465749997646,157.524420700036,157.524420700036,x,1,0.30894960020668805,None,khushi,001,2023-10-09_11h43.49.482,sequential_learning,2023.1.3,60.47843273945566,
150,v,15,1,61,1,,,,,157.85772489989176,158.85784159996547,158.85784159996547,158.85784159996547,158.85784159996547,158.85784159996547,159.8574624999892,159.8574624999892,v,1,0.2710339999757707,None,khushi,001,2023-10-09_11h43.49.482,sequential_learning,2023.1.3,60.47843273945566,
50,c,15,2,62,2,,,,,160.15717629995197,161.15694459993392,161.15694459993392,161.15694459993392,161.15694459993392,161.15694459993392,162.14001829992048,162.14001829992048,c,1,0.24963540001772344,None,khushi,001,2023-10-09_11h43.49.482,sequential_learning,2023.1.3,60.47843273945566,
-150,z,15,3,63,3,,,,,162.40665839985013,163.406949599972,163.406949599972,163.406949599972,163.406949599972,163.406949599972,164.40724890003912,164.40724890003912,z,1,0.4848044002428651,None,khushi,001,2023-10-09_11h43.49.482,sequential_learning,2023.1.3,60.47843273945566,
-50,x,16,0,64,0,,,,,164.92349909991026,165.92338189994916,165.92338189994916,165.92338189994916,165.92338189994916,165.92338189994916,166.9228580999188,166.9228580999188,x,1,0.27395429997704923,None,khushi,001,2023-10-09_11h43.49.482,sequential_learning,2023.1.3,60.47843273945566,
150,v,16,1,65,1,,,,,167.2231948999688,168.2068419000134,168.2068419000134,168.2068419000134,168.2068419000134,168.22285949997604,169.22223829990253,169.22223829990253,v,1,0.2949093000497669,None,khushi,001,2023-10-09_11h43.49.482,sequential_learning,2023.1.3,60.47843273945566,
50,c,16,2,66,2,,,,,169.5395436999388,170.5392364000436,170.5392364000436,170.5392364000436,170.5392364000436,170.5392364000436,171.53956379997544,171.53956379997544,c,1,0.2294823001138866,None,khushi,001,2023-10-09_11h43.49.482,sequential_learning,2023.1.3,60.47843273945566,
-150,z,16,3,67,3,,,,,171.78954559983686,172.78950509987772,172.78950509987772,172.78950509987772,172.78950509987772,172.78950509987772,173.78869439987466,173.78869439987466,z,1,0.5009357002563775,None,khushi,001,2023-10-09_11h43.49.482,sequential_learning,2023.1.3,60.47843273945566,
-50,x,17,0,68,0,,,,,174.3051112999674,175.30548810004257,175.30548810004257,175.30548810004257,175.30548810004257,175.30548810004257,176.3049903998617,176.3049903998617,x,1,0.2476427999790758,None,khushi,001,2023-10-09_11h43.49.482,sequential_learning,2023.1.3,60.47843273945566,
150,v,17,1,69,1,,,,,176.57181639992632,177.57141109998338,177.57141109998338,177.57141109998338,177.57141109998338,177.57141109998338,178.57144219987094,178.57144219987094,v,1,0.27173130004666746,None,khushi,001,2023-10-09_11h43.49.482,sequential_learning,2023.1.3,60.47843273945566,
50,c,17,2,70,2,,,,,178.87150839995593,179.87141450005583,179.87141450005583,179.87141450005583,179.87141450005583,179.87141450005583,180.85539050004445,180.85539050004445,c,1,0.21846510004252195,None,khushi,001,2023-10-09_11h43.49.482,sequential_learning,2023.1.3,60.47843273945566,
-150,z,17,3,71,3,,,,,181.1049038998317,182.10441809985787,182.10441809985787,182.10441809985787,182.10441809985787,182.10441809985787,183.10457680001855,183.10457680001855,z,1,0.29731490020640194,None,khushi,001,2023-10-09_11h43.49.482,sequential_learning,2023.1.3,60.47843273945566,
-50,x,18,0,72,0,,,,,183.42072589998133,184.4205422999803,184.4205422999803,184.4205422999803,184.4205422999803,184.4205422999803,185.42068729992025,185.42068729992025,x,1,0.02727270033210516,None,khushi,001,2023-10-09_11h43.49.482,sequential_learning,2023.1.3,60.47843273945566,
150,v,18,1,73,1,,,,,185.47081329999492,186.45383729995228,186.45383729995228,186.45383729995228,186.45383729995228,186.47091769985855,187.45416319998913,187.45416319998913,v,1,0.2733169000130147,None,khushi,001,2023-10-09_11h43.49.482,sequential_learning,2023.1.3,60.47843273945566,
50,c,18,2,74,2,,,,,187.75405950006098,188.75365919992328,188.75365919992328,188.75365919992328,188.75365919992328,188.75365919992328,189.75314509985037,189.75314509985037,c,1,0.09619279997423291,None,khushi,001,2023-10-09_11h43.49.482,sequential_learning,2023.1.3,60.47843273945566,
-150,z,18,3,75,3,,,,,189.87029129988514,190.87008400005288,190.87008400005288,190.87008400005288,190.87008400005288,190.87008400005288,191.86982969986275,191.86982969986275,z,1,0.26771200029179454,None,khushi,001,2023-10-09_11h43.49.482,sequential_learning,2023.1.3,60.47843273945566,
-50,x,19,0,76,0,,,,,192.17009099991992,193.17052130005322,193.17052130005322,193.17052130005322,193.17052130005322,193.17052130005322,194.16966579994187,194.16966579994187,x,1,0.43073140014894307,None,khushi,001,2023-10-09_11h43.49.482,sequential_learning,2023.1.3,60.47843273945566,
150,v,19,1,77,1,,,,,194.61980349989608,195.61912779998966,195.61912779998966,195.61912779998966,195.61912779998966,195.61912779998966,196.61908770003356,196.61908770003356,v,1,0.4632286000996828,None,khushi,001,2023-10-09_11h43.49.482,sequential_learning,2023.1.3,60.47843273945566,
50,c,19,2,78,2,,,,,197.10303450003266,198.1025225999765,198.1025225999765,198.1025225999765,198.1025225999765,198.1025225999765,199.10195169993676,199.10195169993676,c,1,0.3064749001059681,None,khushi,001,2023-10-09_11h43.49.482,sequential_learning,2023.1.3,60.47843273945566,
-150,z,19,3,79,3,,,,,199.43560949992388,200.4351949999109,200.4351949999109,200.4351949999109,200.4351949999109,200.4351949999109,201.43541499995627,201.43541499995627,z,1,0.31604800024069846,None,khushi,001,2023-10-09_11h43.49.482,sequential_learning,2023.1.3,60.47843273945566,
-50,x,20,0,80,0,,,,,201.76842510001734,202.7686067998875,202.7686067998875,202.7686067998875,202.7686067998875,202.7686067998875,203.76835469994694,203.76835469994694,x,1,0.2580875002313405,None,khushi,001,2023-10-09_11h43.49.482,sequential_learning,2023.1.3,60.47843273945566,
150,v,20,1,81,1,,,,,204.05140620004386,205.0514473998919,205.0514473998919,205.0514473998919,205.0514473998919,205.0514473998919,206.05124059994705,206.05124059994705,v,1,0.2775780002120882,None,khushi,001,2023-10-09_11h43.49.482,sequential_learning,2023.1.3,60.47843273945566,
50,c,20,2,82,2,,,,,206.35110699990764,207.33518109982833,207.33518109982833,207.33518109982833,207.33518109982833,207.35107019986026,208.35140889999457,208.35140889999457,c,1,0.25657600001432,None,khushi,001,2023-10-09_11h43.49.482,sequential_learning,2023.1.3,60.47843273945566,
-150,z,20,3,83,3,,,,,208.6343958999496,209.633829300059,209.633829300059,209.633829300059,209.633829300059,209.633829300059,210.63429509988055,210.63429509988055,z,1,0.29867810010910034,None,khushi,001,2023-10-09_11h43.49.482,sequential_learning,2023.1.3,60.47843273945566,
-50,x,21,0,84,0,,,,,210.95093319984153,211.9504781998694,211.9504781998694,211.9504781998694,211.9504781998694,211.9504781998694,212.950425399933,212.950425399933,x,1,0.2877980002667755,None,khushi,001,2023-10-09_11h43.49.482,sequential_learning,2023.1.3,60.47843273945566,
150,v,21,1,85,1,,,,,213.26695229997858,214.2670066000428,214.2670066000428,214.2670066000428,214.2670066000428,214.2670066000428,215.26663509989157,215.26663509989157,v,1,0.5160945001989603,None,khushi,001,2023-10-09_11h43.49.482,sequential_learning,2023.1.3,60.47843273945566,
50,c,21,2,86,2,,,,,215.8000445999205,216.79978400003165,216.79978400003165,216.79978400003165,216.79978400003165,216.79978400003165,217.79968860000372,217.79968860000372,c,1,0.24431980005465448,None,khushi,001,2023-10-09_11h43.49.482,sequential_learning,2023.1.3,60.47843273945566,
-150,z,21,3,87,3,,,,,218.06619369983673,219.0667528999038,219.0667528999038,219.0667528999038,219.0667528999038,219.0667528999038,220.06658519990742,220.06658519990742,z,1,0.2340971000958234,None,khushi,001,2023-10-09_11h43.49.482,sequential_learning,2023.1.3,60.47843273945566,
-50,x,22,0,88,0,,,,,220.33303799992427,221.33277179999277,221.33277179999277,221.33277179999277,221.33277179999277,221.33277179999277,222.33297259989195,222.33297259989195,x,1,0.30136340018361807,None,khushi,001,2023-10-09_11h43.49.482,sequential_learning,2023.1.3,60.47843273945566,
150,v,22,1,89,1,,,,,222.66582180000842,223.66568659991026,223.66568659991026,223.66568659991026,223.66568659991026,223.66568659991026,224.6652962998487,224.6652962998487,v,1,0.26936240028589964,None,khushi,001,2023-10-09_11h43.49.482,sequential_learning,2023.1.3,60.47843273945566,
50,c,22,2,90,2,,,,,224.96523689990863,225.9484176998958,225.9484176998958,225.9484176998958,225.9484176998958,225.96524129994214,226.9655255000107,226.9655255000107,c,1,0.30296889995224774,None,khushi,001,2023-10-09_11h43.49.482,sequential_learning,2023.1.3,60.47843273945566,
-150,z,22,3,91,3,,,,,227.29866970004514,228.29932660004124,228.29932660004124,228.29932660004124,228.29932660004124,228.29932660004124,229.29849379998632,229.29849379998632,z,1,0.4478739001788199,None,khushi,001,2023-10-09_11h43.49.482,sequential_learning,2023.1.3,60.47843273945566,
-50,x,23,0,92,0,,,,,229.7646162000019,230.76482459995896,230.76482459995896,230.76482459995896,230.76482459995896,230.76482459995896,231.76451719994657,231.76451719994657,x,1,0.3079391000792384,None,khushi,001,2023-10-09_11h43.49.482,sequential_learning,2023.1.3,60.47843273945566,
150,v,23,1,93,1,,,,,232.0978639998939,233.09790829988196,233.09790829988196,233.09790829988196,233.09790829988196,233.09790829988196,234.09781549987383,234.09781549987383,v,1,0.28670720010995865,None,khushi,001,2023-10-09_11h43.49.482,sequential_learning,2023.1.3,60.47843273945566,
50,c,23,2,94,2,,,,,234.4138700000476,235.39768579998054,235.39768579998054,235.39768579998054,235.39768579998054,235.41383829992265,236.41392399999313,236.41392399999313,c,1,0.48057110025547445,None,khushi,001,2023-10-09_11h43.49.482,sequential_learning,2023.1.3,60.47843273945566,
-150,z,23,3,95,3,,,,,236.91397019987926,237.9134686999023,237.9134686999023,237.9134686999023,237.9134686999023,237.9134686999023,238.9133537998423,238.9133537998423,z,1,0.44054430024698377,None,khushi,001,2023-10-09_11h43.49.482,sequential_learning,2023.1.3,60.47843273945566,
-50,x,24,0,96,0,,,,,239.38086699997075,240.3804383999668,240.3804383999668,240.3804383999668,240.3804383999668,240.3804383999668,241.37992860004306,241.37992860004306,x,1,0.27721970016136765,None,khushi,001,2023-10-09_11h43.49.482,sequential_learning,2023.1.3,60.47843273945566,
150,v,24,1,97,1,,,,,241.67991189984605,242.66291620000266,242.66291620000266,242.66291620000266,242.66291620000266,242.67983479984105,243.6799888999667,243.6799888999667,v,1,0.4546341001987457,None,khushi,001,2023-10-09_11h43.49.482,sequential_learning,2023.1.3,60.47843273945566,
50,c,24,2,98,2,,,,,244.16262099985033,245.16305439989083,245.16305439989083,245.16305439989083,245.16305439989083,245.16305439989083,246.16242709988728,246.16242709988728,c,1,0.3032458000816405,None,khushi,001,2023-10-09_11h43.49.482,sequential_learning,2023.1.3,60.47843273945566,
-150,z,24,3,99,3,,,,,246.49559609987773,247.49608169985004,247.49608169985004,247.49608169985004,247.49608169985004,247.49608169985004,248.49550900002941,248.49550900002941,z,1,0.4727382999844849,None,khushi,001,2023-10-09_11h43.49.482,sequential_learning,2023.1.3,60.47843273945566,
-50,x,25,0,100,0,,,,,248.9958528999705,249.99517509993166,249.99517509993166,249.99517509993166,249.99517509993166,249.99517509993166,250.99471309990622,250.99471309990622,x,1,0.2880845000036061,None,khushi,001,2023-10-09_11h43.49.482,sequential_learning,2023.1.3,60.47843273945566,
150,v,25,1,101,1,,,,,251.31170389987528,252.3127087999601,252.3127087999601,252.3127087999601,252.3127087999601,252.3127087999601,253.31154509983025,253.31154509983025,v,1,0.29109310009516776,None,khushi,001,2023-10-09_11h43.49.482,sequential_learning,2023.1.3,60.47843273945566,
50,c,25,2,102,2,,,,,253.62790459999815,254.62816019984894,254.62816019984894,254.62816019984894,254.62816019984894,254.62816019984894,255.62783679994754,255.62783679994754,c,1,0.30391120025888085,None,khushi,001,2023-10-09_11h43.49.482,sequential_learning,2023.1.3,60.47843273945566,
-150,z,25,3,103,3,,,,,255.96158470003866,256.9610985999461,256.9610985999461,256.9610985999461,256.9610985999461,256.9610985999461,257.96120429993607,257.96120429993607,z,1,0.323805799940601,None,khushi,001,2023-10-09_11h43.49.482,sequential_learning,2023.1.3,60.47843273945566,
-50,x,26,0,104,0,,,,,258.31112729990855,259.2939313000534,259.2939313000534,259.2939313000534,259.2939313000534,259.3110769998748,260.29395379987545,260.29395379987545,x,1,0.27494420018047094,None,khushi,001,2023-10-09_11h43.49.482,sequential_learning,2023.1.3,60.47843273945566,
150,v,26,1,105,1,,,,,260.5938581000082,261.5773018999025,261.5773018999025,261.5773018999025,261.5773018999025,261.59344279998913,262.5774804998655,262.5774804998655,v,1,0.3428672000300139,None,khushi,001,2023-10-09_11h43.49.482,sequential_learning,2023.1.3,60.47843273945566,
50,c,26,2,106,2,,,,,262.94392039999366,263.9439178998582,263.9439178998582,263.9439178998582,263.9439178998582,263.9439178998582,264.94386380002834,264.94386380002834,c,1,0.2591311002615839,None,khushi,001,2023-10-09_11h43.49.482,sequential_learning,2023.1.3,60.47843273945566,
-150,z,26,3,107,3,,,,,265.2262392998673,266.22678919998,266.22678919998,266.22678919998,266.22678919998,266.22678919998,267.22628709999844,267.22628709999844,z,1,0.2926436001434922,None,khushi,001,2023-10-09_11h43.49.482,sequential_learning,2023.1.3,60.47843273945566,
-50,x,27,0,108,0,,,,,267.5435017000418,268.5425474999938,268.5425474999938,268.5425474999938,268.5425474999938,268.5425474999938,269.5424132000189,269.5424132000189,x,1,0.3037052000872791,None,khushi,001,2023-10-09_11h43.49.482,sequential_learning,2023.1.3,60.47843273945566,
150,v,27,1,109,1,,,,,269.87681839987636,270.87603239994496,270.87603239994496,270.87603239994496,270.87603239994496,270.87603239994496,271.876166800037,271.876166800037,v,1,0.35737180011346936,None,khushi,001,2023-10-09_11h43.49.482,sequential_learning,2023.1.3,60.47843273945566,
50,c,27,2,110,2,,,,,272.25887049990706,273.25877019995824,273.25877019995824,273.25877019995824,273.25877019995824,273.25877019995824,274.2422017999925,274.2422017999925,c,1,0.2748289001174271,None,khushi,001,2023-10-09_11h43.49.482,sequential_learning,2023.1.3,60.47843273945566,
-150,z,27,3,111,3,,,,,274.54218490002677,275.5251302998513,275.5251302998513,275.5251302998513,275.5251302998513,275.5422859999817,276.5419711000286,276.5419711000286,z,1,0.3508272999897599,None,khushi,001,2023-10-09_11h43.49.482,sequential_learning,2023.1.3,60.47843273945566,
-50,x,28,0,112,0,,,,,276.9256424000487,277.9249876998365,277.9249876998365,277.9249876998365,277.9249876998365,277.9249876998365,278.9249887999613,278.9249887999613,x,1,0.3540830002166331,None,khushi,001,2023-10-09_11h43.49.482,sequential_learning,2023.1.3,60.47843273945566,
150,v,28,1,113,1,,,,,279.3081622000318,280.30797189986333,280.30797189986333,280.30797189986333,280.30797189986333,280.30797189986333,281.3078236000147,281.3078236000147,v,1,0.5833150001708418,None,khushi,001,2023-10-09_11h43.49.482,sequential_learning,2023.1.3,60.47843273945566,
50,c,28,2,114,2,,,,,281.90764730004594,282.90765920002013,282.90765920002013,282.90765920002013,282.90765920002013,282.90765920002013,283.90766360005364,283.90766360005364,c,1,0.30821970012038946,None,khushi,001,2023-10-09_11h43.49.482,sequential_learning,2023.1.3,60.47843273945566,
-150,z,28,3,115,3,,,,,284.24168229987845,285.24041430000216,285.24041430000216,285.24041430000216,285.24041430000216,285.24041430000216,286.240479900036,286.240479900036,z,1,0.2753104001749307,None,khushi,001,2023-10-09_11h43.49.482,sequential_learning,2023.1.3,60.47843273945566,
-50,x,29,0,116,0,,,,,286.54044939996675,287.54025349998847,287.54025349998847,287.54025349998847,287.54025349998847,287.54025349998847,288.54027959983796,288.54027959983796,x,1,1.4529969000723213,0.013430600054562092,khushi,001,2023-10-09_11h43.49.482,sequential_learning,2023.1.3,60.47843273945566,
150,v,29,1,117,1,,,,,290.0232938998379,291.02340970002115,291.02340970002115,291.02340970002115,291.02340970002115,291.02340970002115,292.02288439986296,292.02288439986296,v,1,0.29551900015212595,None,khushi,001,2023-10-09_11h43.49.482,sequential_learning,2023.1.3,60.47843273945566,
50,c,29,2,118,2,,,,,292.340231299866,293.3402144999709,293.3402144999709,293.3402144999709,293.3402144999709,293.3402144999709,294.33914599986747,294.33914599986747,c,1,0.8271277002058923,None,khushi,001,2023-10-09_11h43.49.482,sequential_learning,2023.1.3,60.47843273945566,
-150,z,29,3,119,3,,,,,295.1891518998891,296.1895395000465,296.1895395000465,296.1895395000465,296.1895395000465,296.1895395000465,297.1892109999899,297.1892109999899,z,1,0.2871594000607729,None,khushi,001,2023-10-09_11h43.49.482,sequential_learning,2023.1.3,60.47843273945566,
-50,x,30,0,120,0,,,,,297.5062992000021,298.48894730000757,298.48894730000757,298.48894730000757,298.48894730000757,298.50562820001505,299.48892479995266,299.48892479995266,x,1,0.2824675999581814,None,khushi,001,2023-10-09_11h43.49.482,sequential_learning,2023.1.3,60.47843273945566,
150,v,30,1,121,1,,,,,299.7894631999079,300.7886750998441,300.7886750998441,300.7886750998441,300.7886750998441,300.8049480000045,301.7885896998923,301.7885896998923,v,1,0.27045860001817346,None,khushi,001,2023-10-09_11h43.49.482,sequential_learning,2023.1.3,60.47843273945566,
50,c,30,2,122,2,,,,,302.08874839986674,303.0717706999276,303.0717706999276,303.0717706999276,303.0717706999276,303.0885648999829,304.0881845999975,304.0881845999975,c,1,0.2453783000819385,None,khushi,001,2023-10-09_11h43.49.482,sequential_learning,2023.1.3,60.47843273945566,
-150,z,30,3,123,3,,,,,304.35454129986465,305.338065699907,305.338065699907,305.338065699907,305.338065699907,305.35499609983526,306.35496150003746,306.35496150003746,z,1,0.34348540008068085,None,khushi,001,2023-10-09_11h43.49.482,sequential_learning,2023.1.3,60.47843273945566,
-50,x,31,0,124,0,,,,,306.72077329992317,307.72107369988225,307.72107369988225,307.72107369988225,307.72107369988225,307.72107369988225,308.7207098000217,308.7207098000217,x,1,0.1474834003020078,None,khushi,001,2023-10-09_11h43.49.482,sequential_learning,2023.1.3,60.47843273945566,
150,v,31,1,125,1,,,,,308.88799569988623,309.88760580006056,309.88760580006056,309.88760580006056,309.88760580006056,309.9041740000248,310.8873479999602,310.8873479999602,v,1,0.318445400102064,None,khushi,001,2023-10-09_11h43.49.482,sequential_learning,2023.1.3,60.47843273945566,
50,c,31,2,126,2,,,,,311.23708710004576,312.23723950004205,312.23723950004205,312.23723950004205,312.23723950004205,312.23723950004205,313.2369680998381,313.2369680998381,c,1,0.26206249999813735,None,khushi,001,2023-10-09_11h43.49.482,sequential_learning,2023.1.3,60.47843273945566,
-150,z,31,3,127,3,,,,,313.52017449983396,314.52009360003285,314.52009360003285,314.52009360003285,314.52009360003285,314.52009360003285,315.5205379999243,315.5205379999243,z,1,0.26847600005567074,None,khushi,001,2023-10-09_11h43.49.482,sequential_learning,2023.1.3,60.47843273945566,
-50,x,32,0,128,0,,,,,315.81985490000807,316.81971669988707,316.81971669988707,316.81971669988707,316.81971669988707,316.81971669988707,317.81944529991597,317.81944529991597,x,1,0.2917491002008319,None,khushi,001,2023-10-09_11h43.49.482,sequential_learning,2023.1.3,60.47843273945566,
150,v,32,1,129,1,,,,,318.13637760002166,319.1361767000053,319.1361767000053,319.1361767000053,319.1361767000053,319.1361767000053,320.1358932000585,320.1358932000585,v,1,0.29877550015226007,None,khushi,001,2023-10-09_11h43.49.482,sequential_learning,2023.1.3,60.47843273945566,
50,c,32,2,130,2,,,,,320.45288120000623,321.4525939999148,321.4525939999148,321.4525939999148,321.4525939999148,321.4525939999148,322.4525551998522,322.4525551998522,c,1,0.34291920019313693,None,khushi,001,2023-10-09_11h43.49.482,sequential_learning,2023.1.3,60.47843273945566,
-150,z,32,3,131,3,,,,,322.81865289993584,323.8188020000234,323.8188020000234,323.8188020000234,323.8188020000234,323.8188020000234,324.81914619985037,324.81914619985037,z,1,0.40605290001258254,None,khushi,001,2023-10-09_11h43.49.482,sequential_learning,2023.1.3,60.47843273945566,
-50,x,33,0,132,0,,,,,325.2522938000038,326.25191419990733,326.25191419990733,326.25191419990733,326.25191419990733,326.25191419990733,327.2517482000403,327.2517482000403,x,1,0.5850471002049744,None,khushi,001,2023-10-09_11h43.49.482,sequential_learning,2023.1.3,60.47843273945566,
150,v,33,1,133,1,,,,,327.86815809994005,328.8682134000119,328.8682134000119,328.8682134000119,328.8682134000119,328.8682134000119,329.8679674998857,329.8679674998857,v,1,0.3839793000370264,None,khushi,001,2023-10-09_11h43.49.482,sequential_learning,2023.1.3,60.47843273945566,
50,c,33,2,134,2,,,,,330.28454190003686,331.2844108999707,331.2844108999707,331.2844108999707,331.2844108999707,331.2844108999707,332.28430019994266,332.28430019994266,c,1,0.3204930000938475,None,khushi,001,2023-10-09_11h43.49.482,sequential_learning,2023.1.3,60.47843273945566,
-150,z,33,3,135,3,,,,,332.6342549000401,333.6173677998595,333.6173677998595,333.6173677998595,333.6173677998595,333.6340391000267,334.6170942999888,334.6170942999888,z,1,0.3095006002113223,None,khushi,001,2023-10-09_11h43.49.482,sequential_learning,2023.1.3,60.47843273945566,
-50,x,34,0,136,0,,,,,334.9504124999512,335.9506266999524,335.9506266999524,335.9506266999524,335.9506266999524,335.9506266999524,336.93375770002604,336.93375770002604,x,1,0.25753109995275736,None,khushi,001,2023-10-09_11h43.49.482,sequential_learning,2023.1.3,60.47843273945566,
150,v,34,1,137,1,,,,,337.21706739999354,338.2000676000025,338.2000676000025,338.2000676000025,338.2000676000025,338.21692609996535,339.21673069987446,339.21673069987446,v,1,0.3144305001478642,None,khushi,001,2023-10-09_11h43.49.482,sequential_learning,2023.1.3,60.47843273945566,
50,c,34,2,138,2,,,,,339.55026309983805,340.55035759997554,340.55035759997554,340.55035759997554,340.55035759997554,340.55035759997554,341.55018220003694,341.55018220003694,c,1,0.2980659001041204,None,khushi,001,2023-10-09_11h43.49.482,sequential_learning,2023.1.3,60.47843273945566,
-150,z,34,3,139,3,,,,,341.8666823999956,342.8663182000164,342.8663182000164,342.8663182000164,342.8663182000164,342.8663182000164,343.86583969998173,343.86583969998173,z,1,0.31563950004056096,None,khushi,001,2023-10-09_11h43.49.482,sequential_learning,2023.1.3,60.47843273945566,
-50,x,35,0,140,0,,,,,344.20040119998157,345.1995469999965,345.1995469999965,345.1995469999965,345.1995469999965,345.21601670002565,346.19923489983194,346.19923489983194,x,1,0.31540970015339553,None,khushi,001,2023-10-09_11h43.49.482,sequential_learning,2023.1.3,60.47843273945566,
150,v,35,1,141,1,,,,,346.53212979994714,347.53268649987876,347.53268649987876,347.53268649987876,347.53268649987876,347.53268649987876,348.5330429999158,348.5330429999158,v,1,0.29887980013154447,None,khushi,001,2023-10-09_11h43.49.482,sequential_learning,2023.1.3,60.47843273945566,
50,c,35,2,142,2,,,,,348.84870909992605,349.8486864999868,349.8486864999868,349.8486864999868,349.8486864999868,349.8486864999868,350.8483938998543,350.8483938998543,c,1,0.6140436001587659,None,khushi,001,2023-10-09_11h43.49.482,sequential_learning,2023.1.3,60.47843273945566,
-150,z,35,3,143,3,,,,,351.4821496999357,352.48172369995154,352.48172369995154,352.48172369995154,352.48172369995154,352.48172369995154,353.48221140005626,353.48221140005626,z,1,0.4175411001779139,None,khushi,001,2023-10-09_11h43.49.482,sequential_learning,2023.1.3,60.47843273945566,
-50,x,36,0,144,0,,,,,353.9314786000177,354.9319761998486,354.9319761998486,354.9319761998486,354.9319761998486,354.9319761998486,355.93134599993937,355.93134599993937,x,1,0.2962287000846118,None,khushi,001,2023-10-09_11h43.49.482,sequential_learning,2023.1.3,60.47843273945566,
150,v,36,1,145,1,,,,,356.24788389983587,357.24778899992816,357.24778899992816,357.24778899992816,357.24778899992816,357.24778899992816,358.24750279984437,358.24750279984437,v,1,0.26228610007092357,None,khushi,001,2023-10-09_11h43.49.482,sequential_learning,2023.1.3,60.47843273945566,
50,c,36,2,146,2,,,,,358.5310241000261,359.5144135998562,359.5144135998562,359.5144135998562,359.5144135998562,359.53089309995994,360.5305202999152,360.5305202999152,c,1,0.27708259993232787,None,khushi,001,2023-10-09_11h43.49.482,sequential_learning,2023.1.3,60.47843273945566,
-150,z,36,3,147,3,,,,,360.83117649983615,361.830932199955,361.830932199955,361.830932199955,361.830932199955,361.830932199955,362.83086870005354,362.83086870005354,z,1,0.3326479000970721,None,khushi,001,2023-10-09_11h43.49.482,sequential_learning,2023.1.3,60.47843273945566,
-50,x,37,0,148,0,,,,,363.18028760002926,364.16320619988255,364.16320619988255,364.16320619988255,364.16320619988255,364.1805352999363,365.18038359982893,365.18038359982893,x,1,0.566174000268802,None,khushi,001,2023-10-09_11h43.49.482,sequential_learning,2023.1.3,60.47843273945566,
150,v,37,1,149,1,,,,,365.763368899934,366.76332270004787,366.76332270004787,366.76332270004787,366.76332270004787,366.76332270004787,367.7637378999498,367.7637378999498,v,1,1.0584989001508802,None,khushi,001,2023-10-09_11h43.49.482,sequential_learning,2023.1.3,60.47843273945566,
50,c,37,2,150,2,,,,,368.84593239985406,369.84633430000395,369.84633430000395,369.84633430000395,369.84633430000395,369.84633430000395,370.84621519991197,370.84621519991197,c,1,0.844274700153619,None,khushi,001,2023-10-09_11h43.49.482,sequential_learning,2023.1.3,60.47843273945566,
-150,z,37,3,151,3,,,,,371.7122710000258,372.7124506998807,372.7124506998807,372.7124506998807,372.7124506998807,372.7124506998807,373.71212080004625,373.71212080004625,z,1,0.30556850018911064,None,khushi,001,2023-10-09_11h43.49.482,sequential_learning,2023.1.3,60.47843273945566,
-50,x,38,0,152,0,,,,,374.04535249993205,375.0451869999524,375.0451869999524,375.0451869999524,375.0451869999524,375.0451869999524,376.0454508999828,376.0454508999828,x,1,0.5740443000104278,None,khushi,001,2023-10-09_11h43.49.482,sequential_learning,2023.1.3,60.47843273945566,
150,v,38,1,153,1,,,,,376.64545559999533,377.644815800013,377.644815800013,377.644815800013,377.644815800013,377.644815800013,378.64536129985936,378.64536129985936,v,1,0.731699300231412,None,khushi,001,2023-10-09_11h43.49.482,sequential_learning,2023.1.3,60.47843273945566,
50,c,38,2,154,2,,,,,379.396678699879,380.39497120003216,380.39497120003216,380.39497120003216,380.39497120003216,380.4114466998726,381.3942879999522,381.3942879999522,c,1,0.653875500196591,None,khushi,001,2023-10-09_11h43.49.482,sequential_learning,2023.1.3,60.47843273945566,
-150,z,38,3,155,3,,,,,382.07816109992564,383.0615073000081,383.0615073000081,383.0615073000081,383.0615073000081,383.07751480001025,384.07740269997157,384.07740269997157,z,1,0.240243999985978,None,khushi,001,2023-10-09_11h43.49.482,sequential_learning,2023.1.3,60.47843273945566,
-50,x,39,0,156,0,,,,,384.34402800002135,385.34417239995673,385.34417239995673,385.34417239995673,385.34417239995673,385.34417239995673,386.3438259998802,386.3438259998802,x,1,0.4686519999522716,None,khushi,001,2023-10-09_11h43.49.482,sequential_learning,2023.1.3,60.47843273945566,
150,v,39,1,157,1,,,,,386.84396980004385,387.8439521000255,387.8439521000255,387.8439521000255,387.8439521000255,387.8439521000255,388.8439628998749,388.8439628998749,v,1,0.2966778001282364,None,khushi,001,2023-10-09_11h43.49.482,sequential_learning,2023.1.3,60.47843273945566,
50,c,39,2,158,2,,,,,389.15973769989796,390.143042499898,390.143042499898,390.143042499898,390.143042499898,390.1599117999431,391.16014729999006,391.16014729999006,c,1,0.32754180021584034,None,khushi,001,2023-10-09_11h43.49.482,sequential_learning,2023.1.3,60.47843273945566,
-150,z,39,3,159,3,,,,,391.5095825998578,392.50997689994983,392.50997689994983,392.50997689994983,392.50997689994983,392.50997689994983,393.51033860002644,393.51033860002644,z,1,0.2587697000708431,None,khushi,001,2023-10-09_11h43.49.482,sequential_learning,2023.1.3,60.47843273945566,
-50,x,40,0,160,0,,,,,393.79266819986515,394.79305009986274,394.79305009986274,394.79305009986274,394.79305009986274,394.79305009986274,395.79275160003453,395.79275160003453,x,1,1.2102841001469642,None,khushi,001,2023-10-09_11h43.49.482,sequential_learning,2023.1.3,60.47843273945566,
150,v,40,1,161,1,,,,,397.02581789996475,398.0258412999101,398.0258412999101,398.0258412999101,398.0258412999101,398.0258412999101,399.02569909999147,399.02569909999147,v,1,0.4119406999088824,None,khushi,001,2023-10-09_11h43.49.482,sequential_learning,2023.1.3,60.47843273945566,
50,c,40,2,162,2,,,,,399.45875840005465,400.4589035999961,400.4589035999961,400.4589035999961,400.4589035999961,400.4589035999961,401.45899539999664,401.45899539999664,c,1,0.33084350009448826,None,khushi,001,2023-10-09_11h43.49.482,sequential_learning,2023.1.3,60.47843273945566,
-150,z,40,3,163,3,,,,,401.80846549989656,402.8082788998727,402.8082788998727,402.8082788998727,402.8082788998727,402.8082788998727,403.80806709988974,403.80806709988974,z,1,0.2535625002346933,None,khushi,001,2023-10-09_11h43.49.482,sequential_learning,2023.1.3,60.47843273945566,
-50,x,41,0,164,0,,,,,404.0914328000508,405.0927217998542,405.0927217998542,405.0927217998542,405.0927217998542,405.0927217998542,406.0918767999392,406.0918767999392,x,1,0.3345245001837611,None,khushi,001,2023-10-09_11h43.49.482,sequential_learning,2023.1.3,60.47843273945566,
150,v,41,1,165,1,,,,,406.4580087000504,407.45828979997896,407.45828979997896,407.45828979997896,407.45828979997896,407.45828979997896,408.45740009984,408.45740009984,v,1,0.681602600030601,None,khushi,001,2023-10-09_11h43.49.482,sequential_learning,2023.1.3,60.47843273945566,
50,c,41,2,166,2,,,,,409.15788369998336,410.1572481999174,410.1572481999174,410.1572481999174,410.1572481999174,410.1572481999174,411.15729609993286,411.15729609993286,c,1,0.4581387999933213,None,khushi,001,2023-10-09_11h43.49.482,sequential_learning,2023.1.3,60.47843273945566,
-150,z,41,3,167,3,,,,,411.64053269987926,412.6404106998816,412.6404106998816,412.6404106998816,412.6404106998816,412.6404106998816,413.6405549000483,413.6405549000483,z,1,0.4942958001047373,None,khushi,001,2023-10-09_11h43.49.482,sequential_learning,2023.1.3,60.47843273945566,
-50,x,42,0,168,0,,,,,414.15679489984177,415.1400220999494,415.1400220999494,415.1400220999494,415.1400220999494,415.15678910003044,416.140255499864,416.140255499864,x,1,0.6438397001475096,None,khushi,001,2023-10-09_11h43.49.482,sequential_learning,2023.1.3,60.47843273945566,
150,v,42,1,169,1,,,,,416.8066821000539,417.8062299999874,417.8062299999874,417.8062299999874,417.8062299999874,417.8062299999874,418.80667119985446,418.80667119985446,v,1,1.1052899002097547,None,khushi,001,2023-10-09_11h43.49.482,sequential_learning,2023.1.3,60.47843273945566,
50,c,42,2,170,2,,,,,419.93966869986616,420.93894929997623,420.93894929997623,420.93894929997623,420.93894929997623,420.93894929997623,421.9225726998411,421.9225726998411,c,1,0.2766175002325326,None,khushi,001,2023-10-09_11h43.49.482,sequential_learning,2023.1.3,60.47843273945566,
-150,z,42,3,171,3,,,,,422.2225311000366,423.2224429999478,423.2224429999478,423.2224429999478,423.2224429999478,423.2224429999478,424.2223141998984,424.2223141998984,z,1,0.36819540010765195,None,khushi,001,2023-10-09_11h43.49.482,sequential_learning,2023.1.3,60.47843273945566,
-50,x,43,0,172,0,,,,,424.6221675998531,425.60536509985104,425.60536509985104,425.60536509985104,425.60536509985104,425.6220175998751,426.60515379998833,426.60515379998833,x,1,0.38235580013133585,None,khushi,001,2023-10-09_11h43.49.482,sequential_learning,2023.1.3,60.47843273945566,
150,v,43,1,173,1,,,,,427.0063366999384,428.0056095998734,428.0056095998734,428.0056095998734,428.0056095998734,428.0056095998734,429.004827799974,429.004827799974,v,1,0.29317320021800697,None,khushi,001,2023-10-09_11h43.49.482,sequential_learning,2023.1.3,60.47843273945566,
50,c,43,2,174,2,,,,,429.32158900005743,430.32149879983626,430.32149879983626,430.32149879983626,430.32149879983626,430.32149879983626,431.32109740003943,431.32109740003943,c,1,0.2773125001695007,None,khushi,001,2023-10-09_11h43.49.482,sequential_learning,2023.1.3,60.47843273945566,
-150,z,43,3,175,3,,,,,431.6209656998981,432.6210290999152,432.6210290999152,432.6210290999152,432.6210290999152,432.6210290999152,433.6216418999247,433.6216418999247,z,1,0.30779930017888546,None,khushi,001,2023-10-09_11h43.49.482,sequential_learning,2023.1.3,60.47843273945566,
-50,x,44,0,176,0,,,,,433.95440479996614,434.9542640999425,434.9542640999425,434.9542640999425,434.9542640999425,434.9542640999425,435.937383600045,435.937383600045,x,1,0.5363639001734555,None,khushi,001,2023-10-09_11h43.49.482,sequential_learning,2023.1.3,60.47843273945566,
150,v,44,1,177,1,,,,,436.5042208000086,437.50360860000364,437.50360860000364,437.50360860000364,437.50360860000364,437.50360860000364,438.5036324998364,438.5036324998364,v,1,0.273256900254637,None,khushi,001,2023-10-09_11h43.49.482,sequential_learning,2023.1.3,60.47843273945566,
50,c,44,2,178,2,,,,,438.8033898998983,439.80330129992217,439.80330129992217,439.80330129992217,439.80330129992217,439.80330129992217,440.8033908000216,440.8033908000216,c,1,0.17278099991381168,None,khushi,001,2023-10-09_11h43.49.482,sequential_learning,2023.1.3,60.47843273945566,
-150,z,44,3,179,3,,,,,441.0037767000031,442.00321300001815,442.00321300001815,442.00321300001815,442.00321300001815,442.0197707999032,443.0029561999254,443.0029561999254,z,1,0.3416666002012789,None,khushi,001,2023-10-09_11h43.49.482,sequential_learning,2023.1.3,60.47843273945566,
-50,x,45,0,180,0,,,,,443.370000799885,444.3698851999361,444.3698851999361,444.3698851999361,444.3698851999361,444.3698851999361,445.36977540003136,445.36977540003136,x,1,0.13606230006553233,None,khushi,001,2023-10-09_11h43.49.482,sequential_learning,2023.1.3,60.47843273945566,
150,v,45,1,181,1,,,,,445.53614209988154,446.5359946999233,446.5359946999233,446.5359946999233,446.5359946999233,446.5359946999233,447.53552469983697,447.53552469983697,v,1,0.4027091001626104,None,khushi,001,2023-10-09_11h43.49.482,sequential_learning,2023.1.3,60.47843273945566,
50,c,45,2,182,2,,,,,447.9684619999025,448.9692551000044,448.9692551000044,448.9692551000044,448.9692551000044,448.9692551000044,449.9696899999399,449.9696899999399,c,1,0.2704260000027716,None,khushi,001,2023-10-09_11h43.49.482,sequential_learning,2023.1.3,60.47843273945566,
-150,z,45,3,183,3,,,,,450.2685984999407,451.25193589995615,451.25193589995615,451.25193589995615,451.25193589995615,451.26838389993645,452.26911120000295,452.26911120000295,z,1,0.27657060022465885,None,khushi,001,2023-10-09_11h43.49.482,sequential_learning,2023.1.3,60.47843273945566,
-50,x,46,0,184,0,,,,,452.56912239990197,453.56823859992437,453.56823859992437,453.56823859992437,453.56823859992437,453.56823859992437,454.5678938999772,454.5678938999772,x,1,0.3851236002519727,None,khushi,001,2023-10-09_11h43.49.482,sequential_learning,2023.1.3,60.47843273945566,
150,v,46,1,185,1,,,,,454.9844315999653,455.9846669998951,455.9846669998951,455.9846669998951,455.9846669998951,455.9846669998951,456.9845956999343,456.9845956999343,v,1,0.3288088000845164,None,khushi,001,2023-10-09_11h43.49.482,sequential_learning,2023.1.3,60.47843273945566,
50,c,46,2,186,2,,,,,457.33462490001693,458.3178038999904,458.3178038999904,458.3178038999904,458.3178038999904,458.3343938998878,459.33449809998274,459.33449809998274,c,1,0.5761172999627888,None,khushi,001,2023-10-09_11h43.49.482,sequential_learning,2023.1.3,60.47843273945566,
-150,z,46,3,187,3,,,,,459.93430139985867,460.9346226998605,460.9346226998605,460.9346226998605,460.9346226998605,460.9346226998605,461.93364299996756,461.93364299996756,z,1,0.25785770011134446,None,khushi,001,2023-10-09_11h43.49.482,sequential_learning,2023.1.3,60.47843273945566,
-50,x,47,0,188,0,,,,,462.2172347998712,463.20097559993155,463.20097559993155,463.20097559993155,463.20097559993155,463.2167481998913,464.21709449985065,464.21709449985065,x,1,0.3941059000790119,None,khushi,001,2023-10-09_11h43.49.482,sequential_learning,2023.1.3,60.47843273945566,
150,v,47,1,189,1,,,,,464.6338384998962,465.6336244000122,465.6336244000122,465.6336244000122,465.6336244000122,465.6336244000122,466.6336103999056,466.6336103999056,v,1,0.2671655002050102,None,khushi,001,2023-10-09_11h43.49.482,sequential_learning,2023.1.3,60.47843273945566,
50,c,47,2,190,2,,,,,466.93332659988664,467.9328898000531,467.9328898000531,467.9328898000531,467.9328898000531,467.9328898000531,468.93265550001524,468.93265550001524,c,1,0.3856967000756413,None,khushi,001,2023-10-09_11h43.49.482,sequential_learning,2023.1.3,60.47843273945566,
-150,z,47,3,191,3,,,,,469.3494659999851,470.3495549999643,470.3495549999643,470.3495549999643,470.3495549999643,470.3495549999643,471.34903529984877,471.34903529984877,z,1,0.3787785000167787,None,khushi,001,2023-10-09_11h43.49.482,sequential_learning,2023.1.3,60.47843273945566,
-50,x,48,0,192,0,,,,,471.7492791998666,472.7492968000006,472.7492968000006,472.7492968000006,472.7492968000006,472.7492968000006,473.74877349985763,473.74877349985763,x,1,0.2579132001847029,None,khushi,001,2023-10-09_11h43.49.482,sequential_learning,2023.1.3,60.47843273945566,
150,v,48,1,193,1,,,,,474.0325339999981,475.03238440002315,475.03238440002315,475.03238440002315,475.03238440002315,475.03238440002315,476.0316663000267,476.0316663000267,v,1,0.27544730016961694,None,khushi,001,2023-10-09_11h43.49.482,sequential_learning,2023.1.3,60.47843273945566,
50,c,48,2,194,2,,,,,476.332081399858,477.3152336999774,477.3152336999774,477.3152336999774,477.3152336999774,477.3317923999857,478.3314505999442,478.3314505999442,c,1,1.115740300156176,None,khushi,001,2023-10-09_11h43.49.482,sequential_learning,2023.1.3,60.47843273945566,
-150,z,48,3,195,3,,,,,479.46551809995435,480.4648525000084,480.4648525000084,480.4648525000084,480.4648525000084,480.4648525000084,481.4647043000441,481.4647043000441,z,1,0.5619529001414776,None,khushi,001,2023-10-09_11h43.49.482,sequential_learning,2023.1.3,60.47843273945566,
-50,x,49,0,196,0,,,,,482.04770919983275,483.03100709989667,483.03100709989667,483.03100709989667,483.03100709989667,483.0478767999448,484.0312399000395,484.0312399000395,x,1,0.3742484000977129,None,khushi,001,2023-10-09_11h43.49.482,sequential_learning,2023.1.3,60.47843273945566,
150,v,49,1,197,1,,,,,484.4309882998932,485.4308892998379,485.4308892998379,485.4308892998379,485.4308892998379,485.4308892998379,486.4304273999296,486.4304273999296,v,1,0.9292868999764323,None,khushi,001,2023-10-09_11h43.49.482,sequential_learning,2023.1.3,60.47843273945566,
50,c,49,2,198,2,,,,,487.3806068999693,488.37979039992206,488.37979039992206,488.37979039992206,488.37979039992206,488.37979039992206,489.37994279991835,489.37994279991835,c,1,0.6434581002686173,None,khushi,001,2023-10-09_11h43.49.482,sequential_learning,2023.1.3,60.47843273945566,
-150,z,49,3,199,3,,,,,490.04650929989293,491.0468150000088,491.0468150000088,491.0468150000088,491.0468150000088,491.0468150000088,492.04683190002106,492.04683190002106,z,1,0.23008050001226366,None,khushi,001,2023-10-09_11h43.49.482,sequential_learning,2023.1.3,60.47843273945566,
50,c,,,,,0,0,0,2,492.29673149995506,493.2962622998748,493.2962622998748,493.2962622998748,493.2962622998748,493.2962622998748,494.29600870003924,494.29600870003924,c,1,1.067819599993527,None,khushi,001,2023-10-09_11h43.49.482,sequential_learning,2023.1.3,60.47843273945566,
150,v,,,,,0,1,1,1,495.3792701000348,496.3796079000458,496.3796079000458,496.3796079000458,496.3796079000458,496.3796079000458,497.3790412999224,497.3790412999224,v,1,0.7032876999583095,None,khushi,001,2023-10-09_11h43.49.482,sequential_learning,2023.1.3,60.47843273945566,
-50,x,,,,,0,2,2,0,498.11267279996537,499.11237969994545,499.11237969994545,499.11237969994545,499.11237969994545,499.11237969994545,500.112535599852,500.112535599852,x,1,0.7953542999457568,None,khushi,001,2023-10-09_11h43.49.482,sequential_learning,2023.1.3,60.47843273945566,
-50,x,,,,,0,3,3,0,500.92860720003955,501.92852639988996,501.92852639988996,501.92852639988996,501.92852639988996,501.92852639988996,502.9288804999087,502.9288804999087,x,1,0.5291930001694709,None,khushi,001,2023-10-09_11h43.49.482,sequential_learning,2023.1.3,60.47843273945566,
150,v,,,,,1,0,4,1,503.47845389996655,504.47887720004655,504.47887720004655,504.47887720004655,504.47887720004655,504.47887720004655,505.4780333999079,505.4780333999079,v,1,0.7485509002581239,None,khushi,001,2023-10-09_11h43.49.482,sequential_learning,2023.1.3,60.47843273945566,
-150,z,,,,,1,1,5,3,506.2443907998968,507.24431689991616,507.24431689991616,507.24431689991616,507.24431689991616,507.24431689991616,508.244127899874,508.244127899874,z,1,0.6519297000486404,None,khushi,001,2023-10-09_11h43.49.482,sequential_learning,2023.1.3,60.47843273945566,
50,c,,,,,1,2,6,2,508.927743999986,509.927489799913,509.927489799913,509.927489799913,509.927489799913,509.927489799913,510.92722479999065,510.92722479999065,c,1,0.6504809001926333,None,khushi,001,2023-10-09_11h43.49.482,sequential_learning,2023.1.3,60.47843273945566,
-50,x,,,,,1,3,7,0,511.61044079996645,512.6103892000392,512.6103892000392,512.6103892000392,512.6103892000392,512.6103892000392,513.6103880000301,513.6103880000301,x,1,0.6994651001878083,None,khushi,001,2023-10-09_11h43.49.482,sequential_learning,2023.1.3,60.47843273945566,
-150,z,,,,,2,0,8,3,514.3267792998813,515.3103193999268,515.3103193999268,515.3103193999268,515.3103193999268,515.3266948999371,516.3263719999231,516.3263719999231,z,1,0.5279761001002043,None,khushi,001,2023-10-09_11h43.49.482,sequential_learning,2023.1.3,60.47843273945566,
150,v,,,,,2,1,9,1,516.8767335000448,517.8764330998529,517.8764330998529,517.8764330998529,517.8764330998529,517.8764330998529,518.8758149999194,518.8758149999194,v,1,0.8580927001312375,None,khushi,001,2023-10-09_11h43.49.482,sequential_learning,2023.1.3,60.47843273945566,
-50,x,,,,,2,2,10,0,519.759353299858,520.7593600999098,520.7593600999098,520.7593600999098,520.7593600999098,520.7593600999098,521.7590926999692,521.7590926999692,x,1,0.6980748001951724,None,khushi,001,2023-10-09_11h43.49.482,sequential_learning,2023.1.3,60.47843273945566,
50,c,,,,,2,3,11,2,522.4758060998283,523.4754347000271,523.4754347000271,523.4754347000271,523.4754347000271,523.4754347000271,524.4753801999614,524.4753801999614,c,1,0.6085024999920279,None,khushi,001,2023-10-09_11h43.49.482,sequential_learning,2023.1.3,60.47843273945566,
-150,z,,,,,3,0,12,3,525.1093682998326,526.1088616000488,526.1088616000488,526.1088616000488,526.1088616000488,526.1088616000488,527.1083066000137,527.1083066000137,z,1,0.5492030000314116,None,khushi,001,2023-10-09_11h43.49.482,sequential_learning,2023.1.3,60.47843273945566,
50,c,,,,,3,1,13,2,527.6748350998387,528.6747588999569,528.6747588999569,528.6747588999569,528.6747588999569,528.6747588999569,529.6780407999177,529.6780407999177,c,1,0.5739678002428263,None,khushi,001,2023-10-09_11h43.49.482,sequential_learning,2023.1.3,60.47843273945566,
-50,x,,,,,3,2,14,0,530.2747452999465,531.2751724000555,531.2751724000555,531.2751724000555,531.2751724000555,531.2751724000555,532.2743382998742,532.2743382998742,x,1,0.5358003999572247,None,khushi,001,2023-10-09_11h43.49.482,sequential_learning,2023.1.3,60.47843273945566,
150,v,,,,,3,3,15,1,532.84104999993,533.840556900017,533.840556900017,533.840556900017,533.840556900017,533.840556900017,534.8410107998643,534.8410107998643,v,1,0.738824900239706,None,khushi,001,2023-10-09_11h43.49.482,sequential_learning,2023.1.3,60.47843273945566,
-50,x,,,,,4,0,16,0,535.607389099896,536.6073552998714,536.6073552998714,536.6073552998714,536.6073552998714,536.6073552998714,537.6071382998489,537.6071382998489,x,1,0.49197650025598705,None,khushi,001,2023-10-09_11h43.49.482,sequential_learning,2023.1.3,60.47843273945566,
150,v,,,,,4,1,17,1,538.1234196999576,539.1235229000449,539.1235229000449,539.1235229000449,539.1235229000449,539.1235229000449,540.1240024999715,540.1240024999715,v,1,0.4855499002151191,None,khushi,001,2023-10-09_11h43.49.482,sequential_learning,2023.1.3,60.47843273945566,
50,c,,,,,4,2,18,2,540.6398652999196,541.6400973999407,541.6400973999407,541.6400973999407,541.6400973999407,541.6400973999407,542.6400723999832,542.6400723999832,c,1,0.47983020008541644,None,khushi,001,2023-10-09_11h43.49.482,sequential_learning,2023.1.3,60.47843273945566,
150,v,,,,,4,3,19,1,543.1396559998393,544.1236729000229,544.1236729000229,544.1236729000229,544.1236729000229,544.139870399842,545.1225411000196,545.1225411000196,v,1,0.6452484000474215,None,khushi,001,2023-10-09_11h43.49.482,sequential_learning,2023.1.3,60.47843273945566,
50,c,,,,,5,0,20,2,545.7893075998873,546.7724106998648,546.7724106998648,546.7724106998648,546.7724106998648,546.7901917998679,547.7725110000465,547.7725110000465,c,1,0.6255650999955833,None,khushi,001,2023-10-09_11h43.49.482,sequential_learning,2023.1.3,60.47843273945566,
50,c,,,,,5,1,21,2,548.4223416999448,549.4221351998858,549.4221351998858,549.4221351998858,549.4221351998858,549.4221351998858,550.4219122000504,550.4219122000504,c,1,0.6912684002891183,None,khushi,001,2023-10-09_11h43.49.482,sequential_learning,2023.1.3,60.47843273945566,
150,v,,,,,5,2,22,1,551.1385188000277,552.1384262000211,552.1384262000211,552.1384262000211,552.1384262000211,552.1384262000211,553.1382639999501,553.1382639999501,v,1,1.0530256002675742,None,khushi,001,2023-10-09_11h43.49.482,sequential_learning,2023.1.3,60.47843273945566,
-150,z,,,,,5,3,23,3,554.2220723000355,555.221969399834,555.221969399834,555.221969399834,555.221969399834,555.221969399834,556.2212475000415,556.2212475000415,z,1,0.835866600042209,None,khushi,001,2023-10-09_11h43.49.482,sequential_learning,2023.1.3,60.47843273945566,
-50,x,,,,,6,0,24,0,557.0881038999651,558.0872458999511,558.0872458999511,558.0872458999511,558.0872458999511,558.0872458999511,559.0876190999988,559.0876190999988,x,1,0.4060966002289206,None,khushi,001,2023-10-09_11h43.49.482,sequential_learning,2023.1.3,60.47843273945566,
150,v,,,,,6,1,25,1,559.5208113000263,560.5038568000309,560.5038568000309,560.5038568000309,560.5038568000309,560.52075279993,561.5205556999426,561.5205556999426,v,1,0.5951113000046462,None,khushi,001,2023-10-09_11h43.49.482,sequential_learning,2023.1.3,60.47843273945566,
-150,z,,,,,6,2,26,3,562.1372936000116,563.1206830998417,563.1206830998417,563.1206830998417,563.1206830998417,563.1370993999299,564.1369910000358,564.1369910000358,z,1,0.3377438001334667,None,khushi,001,2023-10-09_11h43.49.482,sequential_learning,2023.1.3,60.47843273945566,
50,c,,,,,6,3,27,2,564.5035476000048,565.5032136000227,565.5032136000227,565.5032136000227,565.5032136000227,565.5032136000227,566.5036625999492,566.5036625999492,c,1,0.6395884002558887,None,khushi,001,2023-10-09_11h43.49.482,sequential_learning,2023.1.3,60.47843273945566,
50,c,,,,,7,0,28,2,567.1698634000495,568.1703999000601,568.1703999000601,568.1703999000601,568.1703999000601,568.1703999000601,569.1699510999024,569.1699510999024,x,0,0.288971200119704,None,khushi,001,2023-10-09_11h43.49.482,sequential_learning,2023.1.3,60.47843273945566,
-150,z,,,,,7,1,29,3,569.4867734999862,570.485849800054,570.485849800054,570.485849800054,570.485849800054,570.485849800054,571.469238499878,571.469238499878,z,1,0.4825723001267761,None,khushi,001,2023-10-09_11h43.49.482,sequential_learning,2023.1.3,60.47843273945566,
-150,z,,,,,7,2,30,3,571.9692790999543,572.9689629999921,572.9689629999921,572.9689629999921,572.9689629999921,572.9689629999921,573.9686326999217,573.9686326999217,z,1,0.5199287002906203,None,khushi,001,2023-10-09_11h43.49.482,sequential_learning,2023.1.3,60.47843273945566,
-50,x,,,,,7,3,31,0,574.5186077998951,575.5186938999686,575.5186938999686,575.5186938999686,575.5186938999686,575.5186938999686,576.5185995998327,576.5185995998327,x,1,0.6901390999555588,None,khushi,001,2023-10-09_11h43.49.482,sequential_learning,2023.1.3,60.47843273945566,
-150,z,,,,,8,0,32,3,577.2353727999143,578.2181367999874,578.2181367999874,578.2181367999874,578.2181367999874,578.2348835000303,579.235253199935,579.235253199935,z,1,0.5651484001427889,None,khushi,001,2023-10-09_11h43.49.482,sequential_learning,2023.1.3,60.47843273945566,
-150,z,,,,,8,1,33,3,579.8186190999113,580.8181718999986,580.8181718999986,580.8181718999986,580.8181718999986,580.8181718999986,581.8177519000601,581.8177519000601,z,1,0.4090342002455145,None,khushi,001,2023-10-09_11h43.49.482,sequential_learning,2023.1.3,60.47843273945566,
-50,x,,,,,8,2,34,0,582.2513482999057,583.251254899893,583.251254899893,583.251254899893,583.251254899893,583.251254899893,584.250888499897,584.250888499897,x,1,0.6535654000472277,None,khushi,001,2023-10-09_11h43.49.482,sequential_learning,2023.1.3,60.47843273945566,
-50,x,,,,,8,3,35,0,584.9337994998787,585.9337738999166,585.9337738999166,585.9337738999166,585.9337738999166,585.9337738999166,586.9340945999138,586.9340945999138,x,1,0.592500900151208,None,khushi,001,2023-10-09_11h43.49.482,sequential_learning,2023.1.3,60.47843273945566,
150,v,,,,,9,0,36,1,587.5508836000226,588.5501812000293,588.5501812000293,588.5501812000293,588.5501812000293,588.5501812000293,589.5503485000227,589.5503485000227,v,1,0.6585626001469791,None,khushi,001,2023-10-09_11h43.49.482,sequential_learning,2023.1.3,60.47843273945566,
-50,x,,,,,9,1,37,0,590.2340287000407,591.2330785000231,591.2330785000231,591.2330785000231,591.2330785000231,591.2330785000231,592.2334834998474,592.2334834998474,x,1,0.581977300113067,None,khushi,001,2023-10-09_11h43.49.482,sequential_learning,2023.1.3,60.47843273945566,
-50,x,,,,,9,2,38,0,592.8332438999787,593.8323915998917,593.8323915998917,593.8323915998917,593.8323915998917,593.8323915998917,594.832642500056,594.832642500056,x,1,0.5814912002533674,None,khushi,001,2023-10-09_11h43.49.482,sequential_learning,2023.1.3,60.47843273945566,
-50,x,,,,,9,3,39,0,595.432489000028,596.4158737000544,596.4158737000544,596.4158737000544,596.4158737000544,596.4325590999797,597.4327918000054,597.4327918000054,x,1,0.7103639000561088,None,khushi,001,2023-10-09_11h43.49.482,sequential_learning,2023.1.3,60.47843273945566,
-150,z,,,,,10,0,40,3,598.1657483000308,599.1657436999958,599.1657436999958,599.1657436999958,599.1657436999958,599.1657436999958,600.1655303000007,600.1655303000007,z,1,0.6424921001307666,None,khushi,001,2023-10-09_11h43.49.482,sequential_learning,2023.1.3,60.47843273945566,
150,v,,,,,10,1,41,1,600.831842500018,601.8150518999901,601.8150518999901,601.8150518999901,601.8150518999901,601.8315347000025,602.8320829998702,602.8320829998702,v,1,0.9183335001580417,None,khushi,001,2023-10-09_11h43.49.482,sequential_learning,2023.1.3,60.47843273945566,
150,v,,,,,10,2,42,1,603.7817352998536,604.7813810999505,604.7813810999505,604.7813810999505,604.7813810999505,604.7813810999505,605.7813297000248,605.7813297000248,v,1,1.0208970999810845,None,khushi,001,2023-10-09_11h43.49.482,sequential_learning,2023.1.3,60.47843273945566,
150,v,,,,,10,3,43,1,606.8313410999253,607.8316577000078,607.8316577000078,607.8316577000078,607.8316577000078,607.8316577000078,608.8311369000003,608.8311369000003,v,1,1.0175744001753628,None,khushi,001,2023-10-09_11h43.49.482,sequential_learning,2023.1.3,60.47843273945566,
50,c,,,,,11,0,44,2,609.8807877998333,610.8643390999641,610.8643390999641,610.8643390999641,610.8643390999641,610.8806047998369,611.8643120999914,611.8643120999914,c,1,0.7915583001449704,None,khushi,001,2023-10-09_11h43.49.482,sequential_learning,2023.1.3,60.47843273945566,
-50,x,,,,,11,1,45,0,612.6799852999393,613.6803307998925,613.6803307998925,613.6803307998925,613.6803307998925,613.6803307998925,614.6800477998331,614.6800477998331,x,1,0.6600979999639094,None,khushi,001,2023-10-09_11h43.49.482,sequential_learning,2023.1.3,60.47843273945566,
150,v,,,,,11,2,46,1,615.3634877000004,616.3635417998303,616.3635417998303,616.3635417998303,616.3635417998303,616.3635417998303,617.3631454999559,617.3631454999559,v,1,0.950029100291431,None,khushi,001,2023-10-09_11h43.49.482,sequential_learning,2023.1.3,60.47843273945566,
-150,z,,,,,11,3,47,3,618.3297017998993,619.3297329999041,619.3297329999041,619.3297329999041,619.3297329999041,619.3297329999041,620.329721899936,620.329721899936,z,1,0.6969420001842082,None,khushi,001,2023-10-09_11h43.49.482,sequential_learning,2023.1.3,60.47843273945566,
-50,x,,,,,12,0,48,0,621.0455813000444,622.0457229998428,622.0457229998428,622.0457229998428,622.0457229998428,622.0457229998428,623.0456107999198,623.0456107999198,x,1,0.814134000102058,None,khushi,001,2023-10-09_11h43.49.482,sequential_learning,2023.1.3,60.47843273945566,
-150,z,,,,,12,1,49,3,623.8789718998596,624.8791165000293,624.8791165000293,624.8791165000293,624.8791165000293,624.8791165000293,625.8791082999669,625.8791082999669,z,1,0.8720613000914454,None,khushi,001,2023-10-09_11h43.49.482,sequential_learning,2023.1.3,60.47843273945566,
-150,z,,,,,12,2,50,3,626.7784482999705,627.7786357998848,627.7786357998848,627.7786357998848,627.7786357998848,627.7786357998848,628.7782824998721,628.7782824998721,z,1,0.4454824000131339,None,khushi,001,2023-10-09_11h43.49.482,sequential_learning,2023.1.3,60.47843273945566,
-50,x,,,,,12,3,51,0,629.2450987999327,630.2279391000047,630.2279391000047,630.2279391000047,630.2279391000047,630.2447197998408,631.227981199976,631.227981199976,x,1,0.7703440000768751,None,khushi,001,2023-10-09_11h43.49.482,sequential_learning,2023.1.3,60.47843273945566,
-50,x,,,,,13,0,52,0,632.0273728000466,633.0108027998358,633.0108027998358,633.0108027998358,633.0108027998358,633.0278028999455,634.0108745999169,634.0108745999169,x,1,0.6451629002112895,None,khushi,001,2023-10-09_11h43.49.482,sequential_learning,2023.1.3,60.47843273945566,
-150,z,,,,,13,1,53,3,634.677050099941,635.6606626999564,635.6606626999564,635.6606626999564,635.6606626999564,635.6770569998771,636.677118799882,636.677118799882,z,1,0.5255541002843529,None,khushi,001,2023-10-09_11h43.49.482,sequential_learning,2023.1.3,60.47843273945566,
50,c,,,,,13,2,54,2,637.2267279999796,638.2285779998638,638.2285779998638,638.2285779998638,638.2285779998638,638.2285779998638,639.2272030999884,639.2272030999884,c,1,0.7735743001103401,None,khushi,001,2023-10-09_11h43.49.482,sequential_learning,2023.1.3,60.47843273945566,
50,c,,,,,13,3,55,2,640.0265988998581,641.0262883000541,641.0262883000541,641.0262883000541,641.0262883000541,641.0262883000541,642.0265082998667,642.0265082998667,c,1,0.5828803000040352,None,khushi,001,2023-10-09_11h43.49.482,sequential_learning,2023.1.3,60.47843273945566,
150,v,,,,,14,0,56,1,642.6270723999478,643.6260946998373,643.6260946998373,643.6260946998373,643.6260946998373,643.6260946998373,644.6257478999905,644.6257478999905,v,1,0.572783499956131,None,khushi,001,2023-10-09_11h43.49.482,sequential_learning,2023.1.3,60.47843273945566,
50,c,,,,,14,1,57,2,645.2255599000491,646.2259851000272,646.2259851000272,646.2259851000272,646.2259851000272,646.2259851000272,647.2259896998294,647.2259896998294,x,0,0.47676059999503195,None,khushi,001,2023-10-09_11h43.49.482,sequential_learning,2023.1.3,60.47843273945566,
-150,z,,,,,14,2,58,3,647.7257719999179,648.725554500008,648.725554500008,648.725554500008,648.725554500008,648.725554500008,649.7085605999455,649.7085605999455,z,1,0.6936697999481112,None,khushi,001,2023-10-09_11h43.49.482,sequential_learning,2023.1.3,60.47843273945566,
-150,z,,,,,14,3,59,3,650.4256366000045,651.4259542999789,651.4259542999789,651.4259542999789,651.4259542999789,651.4259542999789,652.4252392998897,652.4252392998897,z,1,0.43316949997097254,None,khushi,001,2023-10-09_11h43.49.482,sequential_learning,2023.1.3,60.47843273945566,
-150,z,,,,,15,0,60,3,652.8760257000104,653.8747070999816,653.8747070999816,653.8747070999816,653.8747070999816,653.8914842000231,654.8745693999808,654.8745693999808,z,1,0.44534000009298325,None,khushi,001,2023-10-09_11h43.49.482,sequential_learning,2023.1.3,60.47843273945566,
150,v,,,,,15,1,61,1,655.341330899857,656.3246088998858,656.3246088998858,656.3246088998858,656.3246088998858,656.3410135000013,657.3414367998485,657.3414367998485,v,1,0.6117342000361532,None,khushi,001,2023-10-09_11h43.49.482,sequential_learning,2023.1.3,60.47843273945566,
150,v,,,,,15,2,62,1,657.9744639999699,658.9574235000182,658.9574235000182,658.9574235000182,658.9574235000182,658.9745332000311,659.957404299872,659.957404299872,v,1,0.5143683000933379,None,khushi,001,2023-10-09_11h43.49.482,sequential_learning,2023.1.3,60.47843273945566,
-50,x,,,,,15,3,63,0,660.4907783998642,661.4906674998347,661.4906674998347,661.4906674998347,661.4906674998347,661.4906674998347,662.4898612999823,662.4898612999823,x,1,0.7669470000546426,None,khushi,001,2023-10-09_11h43.49.482,sequential_learning,2023.1.3,60.47843273945566,
50,c,,,,,16,0,64,2,663.2734836000018,664.2734755000565,664.2734755000565,664.2734755000565,664.2734755000565,664.2734755000565,665.273746300023,665.273746300023,c,1,0.649411000078544,None,khushi,001,2023-10-09_11h43.49.482,sequential_learning,2023.1.3,60.47843273945566,
150,v,,,,,16,1,65,1,665.9394670999609,666.9398330999538,666.9398330999538,666.9398330999538,666.9398330999538,666.9398330999538,667.9396764999256,667.9396764999256,v,1,0.3898773002438247,None,khushi,001,2023-10-09_11h43.49.482,sequential_learning,2023.1.3,60.47843273945566,
50,c,,,,,16,2,66,2,668.3563091000542,669.3397001998965,669.3397001998965,669.3397001998965,669.3397001998965,669.3561563999392,670.3562479999382,670.3562479999382,c,1,0.6930090002715588,None,khushi,001,2023-10-09_11h43.49.482,sequential_learning,2023.1.3,60.47843273945566,
-50,x,,,,,16,3,67,0,671.0728643999901,672.0724361999892,672.0724361999892,672.0724361999892,672.0724361999892,672.0724361999892,673.0724030998535,673.0724030998535,x,1,0.6777071002870798,None,khushi,001,2023-10-09_11h43.49.482,sequential_learning,2023.1.3,60.47843273945566,
150,v,,,,,17,0,68,1,673.7723048999906,674.772624499863,674.772624499863,674.772624499863,674.772624499863,674.772624499863,675.7716504998971,675.7716504998971,v,1,0.4066439000889659,None,khushi,001,2023-10-09_11h43.49.482,sequential_learning,2023.1.3,60.47843273945566,
150,v,,,,,17,1,69,1,676.2053312999196,677.1884341000114,677.1884341000114,677.1884341000114,677.1884341000114,677.2058492999058,678.205010100035,678.205010100035,v,1,0.7858850001357496,0.011806600028648973,khushi,001,2023-10-09_11h43.49.482,sequential_learning,2023.1.3,60.47843273945566,
-50,x,,,,,17,2,70,0,679.0224194000475,680.0214944998734,680.0214944998734,680.0214944998734,680.0214944998734,680.0382230998948,681.0211058000568,681.0211058000568,x,1,0.673568099969998,None,khushi,001,2023-10-09_11h43.49.482,sequential_learning,2023.1.3,60.47843273945566,
-50,x,,,,,17,3,71,0,681.7213606999721,682.7209354999941,682.7209354999941,682.7209354999941,682.7209354999941,682.7209354999941,683.7209274000488,683.7209274000488,c,0,0.6541583000216633,None,khushi,001,2023-10-09_11h43.49.482,sequential_learning,2023.1.3,60.47843273945566,
-150,z,,,,,18,0,72,3,684.4041047999635,685.403684000019,685.403684000019,685.403684000019,685.403684000019,685.403684000019,686.4037788999267,686.4037788999267,z,1,1.20359760010615,None,khushi,001,2023-10-09_11h43.49.482,sequential_learning,2023.1.3,60.47843273945566,
-50,x,,,,,18,1,73,0,687.63689720002,688.6204303000122,688.6204303000122,688.6204303000122,688.6204303000122,688.6372191000264,689.6201601000503,689.6201601000503,x,1,0.6807409001048654,None,khushi,001,2023-10-09_11h43.49.482,sequential_learning,2023.1.3,60.47843273945566,
150,v,,,,,18,2,74,1,690.3203131998889,691.320272800047,691.320272800047,691.320272800047,691.320272800047,691.320272800047,692.3201682998333,692.3201682998333,v,1,0.46029260009527206,None,khushi,001,2023-10-09_11h43.49.482,sequential_learning,2023.1.3,60.47843273945566,
-50,x,,,,,18,3,75,0,692.8031113999896,693.8032345999964,693.8032345999964,693.8032345999964,693.8032345999964,693.8032345999964,694.8035549998749,694.8035549998749,x,1,0.6408350002020597,None,khushi,001,2023-10-09_11h43.49.482,sequential_learning,2023.1.3,60.47843273945566,
50,c,,,,,19,0,76,2,695.4689036998898,696.4687653998844,696.4687653998844,696.4687653998844,696.4687653998844,696.4687653998844,697.4690473000519,697.4690473000519,c,1,0.6544205001555383,None,khushi,001,2023-10-09_11h43.49.482,sequential_learning,2023.1.3,60.47843273945566,
50,c,,,,,19,1,77,2,698.1523182999808,699.135242999997,699.135242999997,699.135242999997,699.135242999997,699.1519497998524,700.1519158000592,700.1519158000592,c,1,0.7203146000392735,None,khushi,001,2023-10-09_11h43.49.482,sequential_learning,2023.1.3,60.47843273945566,
-50,x,,,,,19,2,78,0,700.902285899967,701.9020833999384,701.9020833999384,701.9020833999384,701.9020833999384,701.9020833999384,702.9017681998666,702.9017681998666,x,1,0.6529949000105262,None,khushi,001,2023-10-09_11h43.49.482,sequential_learning,2023.1.3,60.47843273945566,
-50,x,,,,,19,3,79,0,703.5851642000489,704.5850396999158,704.5850396999158,704.5850396999158,704.5850396999158,704.5850396999158,705.5849844999611,705.5849844999611,x,1,0.49008360016159713,None,khushi,001,2023-10-09_11h43.49.482,sequential_learning,2023.1.3,60.47843273945566,
-50,x,,,,,20,0,80,0,706.100989199942,707.1012840999756,707.1012840999756,707.1012840999756,707.1012840999756,707.1012840999756,708.1008635000326,708.1008635000326,x,1,0.4838795999530703,None,khushi,001,2023-10-09_11h43.49.482,sequential_learning,2023.1.3,60.47843273945566,
150,v,,,,,20,1,81,1,708.6178794000298,709.6171116000041,709.6171116000041,709.6171116000041,709.6171116000041,709.6171116000041,710.6171246999875,710.6171246999875,v,1,0.42497930000536144,None,khushi,001,2023-10-09_11h43.49.482,sequential_learning,2023.1.3,60.47843273945566,
-150,z,,,,,20,2,82,3,711.0676233000122,712.0673161998857,712.0673161998857,712.0673161998857,712.0673161998857,712.0673161998857,713.0668138999026,713.0668138999026,z,1,0.4983993999194354,None,khushi,001,2023-10-09_11h43.49.482,sequential_learning,2023.1.3,60.47843273945566,
50,c,,,,,20,3,83,2,713.5835084000137,714.5836924000178,714.5836924000178,714.5836924000178,714.5836924000178,714.5836924000178,715.5834770000074,715.5834770000074,c,1,0.6495258000213653,None,khushi,001,2023-10-09_11h43.49.482,sequential_learning,2023.1.3,60.47843273945566,
-150,z,,,,,21,0,84,3,716.2497274000198,717.2501191999763,717.2501191999763,717.2501191999763,717.2501191999763,717.2501191999763,718.2494526999071,718.2494526999071,z,1,0.4101677001453936,None,khushi,001,2023-10-09_11h43.49.482,sequential_learning,2023.1.3,60.47843273945566,
150,v,,,,,21,1,85,1,718.6832436998375,719.6825178998988,719.6825178998988,719.6825178998988,719.6825178998988,719.6825178998988,720.683010000037,720.683010000037,v,1,0.40886780014261603,None,khushi,001,2023-10-09_11h43.49.482,sequential_learning,2023.1.3,60.47843273945566,
-50,x,,,,,21,2,86,0,721.1161346000154,722.0991847999394,722.0991847999394,722.0991847999394,722.0991847999394,722.1160046998411,723.1156025999226,723.1156025999226,x,1,0.7918855999596417,None,khushi,001,2023-10-09_11h43.49.482,sequential_learning,2023.1.3,60.47843273945566,
-50,x,,,,,21,3,87,0,723.9322452000342,724.9317651998717,724.9317651998717,724.9317651998717,724.9317651998717,724.9317651998717,725.932474100031,725.932474100031,x,1,0.6669851001352072,None,khushi,001,2023-10-09_11h43.49.482,sequential_learning,2023.1.3,60.47843273945566,
-150,z,,,,,22,0,88,3,726.6321268000174,727.631950999843,727.631950999843,727.631950999843,727.631950999843,727.631950999843,728.6316261000466,728.6316261000466,z,1,0.5947666000574827,None,khushi,001,2023-10-09_11h43.49.482,sequential_learning,2023.1.3,60.47843273945566,
50,c,,,,,22,1,89,2,729.2485811999068,730.2482727000024,730.2482727000024,730.2482727000024,730.2482727000024,730.2482727000024,731.2481473998632,731.2481473998632,c,1,1.0081118999514729,None,khushi,001,2023-10-09_11h43.49.482,sequential_learning,2023.1.3,60.47843273945566,
50,c,,,,,22,2,90,2,732.2813839998562,733.2810722000431,733.2810722000431,733.2810722000431,733.2810722000431,733.2810722000431,734.2814058000222,734.2814058000222,c,1,0.8152576002757996,None,khushi,001,2023-10-09_11h43.49.482,sequential_learning,2023.1.3,60.47843273945566,
50,c,,,,,22,3,91,2,735.1139505999163,736.1136508998461,736.1136508998461,736.1136508998461,736.1136508998461,736.1136508998461,737.1139262998477,737.1139262998477,c,1,0.5560390001628548,None,khushi,001,2023-10-09_11h43.49.482,sequential_learning,2023.1.3,60.47843273945566,
-150,z,,,,,23,0,92,3,737.6971940000076,738.696790699847,738.696790699847,738.696790699847,738.696790699847,738.696790699847,739.69684530003,739.69684530003,z,1,0.4363461001776159,None,khushi,001,2023-10-09_11h43.49.482,sequential_learning,2023.1.3,60.47843273945566,
-150,z,,,,,23,1,93,3,740.1636419999413,741.1631348999217,741.1631348999217,741.1631348999217,741.1631348999217,741.1631348999217,742.1634710000362,742.1634710000362,z,1,0.46557920007035136,None,khushi,001,2023-10-09_11h43.49.482,sequential_learning,2023.1.3,60.47843273945566,
-50,x,,,,,23,2,94,0,742.6469602999277,743.6465228998568,743.6465228998568,743.6465228998568,743.6465228998568,743.6465228998568,744.6464892998338,744.6464892998338,x,1,0.6463436000049114,None,khushi,001,2023-10-09_11h43.49.482,sequential_learning,2023.1.3,60.47843273945566,
-150,z,,,,,23,3,95,3,745.3129536998458,746.312722099945,746.312722099945,746.312722099945,746.312722099945,746.312722099945,747.3125878998544,747.3125878998544,z,1,0.3998161000199616,None,khushi,001,2023-10-09_11h43.49.482,sequential_learning,2023.1.3,60.47843273945566,
50,c,,,,,24,0,96,2,747.7288583999034,748.7287566000596,748.7287566000596,748.7287566000596,748.7287566000596,748.7287566000596,749.7292203998659,749.7292203998659,c,1,0.9955378000158817,None,khushi,001,2023-10-09_11h43.49.482,sequential_learning,2023.1.3,60.47843273945566,
50,c,,,,,24,1,97,2,750.7459356000181,751.7450063999277,751.7450063999277,751.7450063999277,751.7450063999277,751.7450063999277,752.7453803999815,752.7453803999815,c,1,0.557992400135845,None,khushi,001,2023-10-09_11h43.49.482,sequential_learning,2023.1.3,60.47843273945566,
50,c,,,,,24,2,98,2,753.3284744999837,754.3282836000435,754.3282836000435,754.3282836000435,754.3282836000435,754.3282836000435,755.3282220000401,755.3282220000401,c,1,0.4661590000614524,None,khushi,001,2023-10-09_11h43.49.482,sequential_learning,2023.1.3,60.47843273945566,
-50,x,,,,,24,3,99,0,755.8117722000461,756.811535899993,756.811535899993,756.811535899993,756.811535899993,756.811535899993,757.8106734999456,757.8106734999456,x,1,0.6106972002889961,None,khushi,001,2023-10-09_11h43.49.482,sequential_learning,2023.1.3,60.47843273945566,
50,c,,,,,25,0,100,2,758.444699899992,759.4444768000394,759.4444768000394,759.4444768000394,759.4444768000394,759.4444768000394,760.4439658999909,760.4439658999909,c,1,0.6440084001515061,None,khushi,001,2023-10-09_11h43.49.482,sequential_learning,2023.1.3,60.47843273945566,
-150,z,,,,,25,1,101,3,761.1105422999244,762.1108907999005,762.1108907999005,762.1108907999005,762.1108907999005,762.1108907999005,763.1105633999687,763.1105633999687,z,1,0.4688929000403732,None,khushi,001,2023-10-09_11h43.49.482,sequential_learning,2023.1.3,60.47843273945566,
150,v,,,,,25,2,102,1,763.6104669000488,764.5938106998801,764.5938106998801,764.5938106998801,764.5938106998801,764.6098630998749,765.5930759999901,765.5930759999901,v,1,0.540517000015825,None,khushi,001,2023-10-09_11h43.49.482,sequential_learning,2023.1.3,60.47843273945566,
150,v,,,,,25,3,103,1,766.1602145000361,767.1433492000215,767.1433492000215,767.1433492000215,767.1433492000215,767.1603116998449,768.1598986999597,768.1598986999597,v,1,1.003296100301668,None,khushi,001,2023-10-09_11h43.49.482,sequential_learning,2023.1.3,60.47843273945566,
-150,z,,,,,26,0,104,3,769.193244199967,770.1924884999171,770.1924884999171,770.1924884999171,770.1924884999171,770.1924884999171,771.1940005999058,771.1940005999058,z,1,0.6295996000990272,None,khushi,001,2023-10-09_11h43.49.482,sequential_learning,2023.1.3,60.47843273945566,
150,v,,,,,26,1,105,1,771.843462199904,772.8424726999365,772.8424726999365,772.8424726999365,772.8424726999365,772.8592036999762,773.8422991998959,773.8422991998959,v,1,0.5551634002476931,None,khushi,001,2023-10-09_11h43.49.482,sequential_learning,2023.1.3,60.47843273945566,
150,v,,,,,26,2,106,1,774.4261656999588,775.4083268998656,775.4083268998656,775.4083268998656,775.4083268998656,775.4418201998342,776.4253572998568,776.4253572998568,v,1,0.4475843000691384,None,khushi,001,2023-10-09_11h43.49.482,sequential_learning,2023.1.3,60.47843273945566,
-150,z,,,,,26,3,107,3,776.8917102999985,777.8918120998424,777.8918120998424,777.8918120998424,777.8918120998424,777.8918120998424,778.8916396999266,778.8916396999266,z,1,0.38814320019446313,None,khushi,001,2023-10-09_11h43.49.482,sequential_learning,2023.1.3,60.47843273945566,
-150,z,,,,,27,0,108,3,779.3077213000506,780.3084346000105,780.3084346000105,780.3084346000105,780.3084346000105,780.3084346000105,781.3077696999535,781.3077696999535,z,1,0.40128890005871654,None,khushi,001,2023-10-09_11h43.49.482,sequential_learning,2023.1.3,60.47843273945566,
-50,x,,,,,27,1,109,0,781.7418598998338,782.7411515000276,782.7411515000276,782.7411515000276,782.7411515000276,782.7411515000276,783.7406478999183,783.7406478999183,x,1,0.7648016000166535,None,khushi,001,2023-10-09_11h43.49.482,sequential_learning,2023.1.3,60.47843273945566,
150,v,,,,,27,2,110,1,784.5241493999492,785.5241302999202,785.5241302999202,785.5241302999202,785.5241302999202,785.5241302999202,786.5243128999136,786.5243128999136,v,1,0.7976603002753109,None,khushi,001,2023-10-09_11h43.49.482,sequential_learning,2023.1.3,60.47843273945566,
-150,z,,,,,27,3,111,3,787.3409033999778,788.3408224999439,788.3408224999439,788.3408224999439,788.3408224999439,788.3408224999439,789.3402092999313,789.3402092999313,z,1,0.45847200020216405,None,khushi,001,2023-10-09_11h43.49.482,sequential_learning,2023.1.3,60.47843273945566,
-150,z,,,,,28,0,112,3,789.8233709000051,790.8236183999106,790.8236183999106,790.8236183999106,790.8236183999106,790.8236183999106,791.8227884999942,791.8227884999942,z,1,0.9709401000291109,None,khushi,001,2023-10-09_11h43.49.482,sequential_learning,2023.1.3,60.47843273945566,
50,c,,,,,28,1,113,2,792.8226756998338,793.8227504999377,793.8227504999377,793.8227504999377,793.8227504999377,793.8227504999377,794.8227802999318,794.8227802999318,c,1,0.7090031001716852,None,khushi,001,2023-10-09_11h43.49.482,sequential_learning,2023.1.3,60.47843273945566,
50,c,,,,,28,2,114,2,795.5566926999018,796.5396521999501,796.5396521999501,796.5396521999501,796.5396521999501,796.5561233998742,797.5559729998931,797.5559729998931,c,1,0.7073420002125204,None,khushi,001,2023-10-09_11h43.49.482,sequential_learning,2023.1.3,60.47843273945566,
150,v,,,,,28,3,115,1,798.2893500998616,799.2887358998414,799.2887358998414,799.2887358998414,799.2887358998414,799.2887358998414,800.2887182000559,800.2887182000559,v,1,0.43313350016251206,None,khushi,001,2023-10-09_11h43.49.482,sequential_learning,2023.1.3,60.47843273945566,
150,v,,,,,29,0,116,1,800.7385227000341,801.7386316000484,801.7386316000484,801.7386316000484,801.7386316000484,801.7386316000484,802.7384250999894,802.7384250999894,v,1,0.4882093002088368,None,khushi,001,2023-10-09_11h43.49.482,sequential_learning,2023.1.3,60.47843273945566,
50,c,,,,,29,1,117,2,803.254942300031,804.2549041998573,804.2549041998573,804.2549041998573,804.2549041998573,804.2549041998573,805.2545936000533,805.2545936000533,c,1,0.6417640000581741,None,khushi,001,2023-10-09_11h43.49.482,sequential_learning,2023.1.3,60.47843273945566,
50,c,,,,,29,2,118,2,805.9214778998867,806.921282599913,806.921282599913,806.921282599913,806.921282599913,806.921282599913,807.9214671999216,807.9214671999216,c,1,0.6455321002285928,None,khushi,001,2023-10-09_11h43.49.482,sequential_learning,2023.1.3,60.47843273945566,
150,v,,,,,29,3,119,1,808.5879631999414,809.5703455999028,809.5703455999028,809.5703455999028,809.5703455999028,809.5873368999455,810.5707111998927,810.5707111998927,v,1,0.6664221999235451,None,khushi,001,2023-10-09_11h43.49.482,sequential_learning,2023.1.3,60.47843273945566,
-50,x,,,,,30,0,120,0,811.2537300998811,812.2538876000326,812.2538876000326,812.2538876000326,812.2538876000326,812.2538876000326,813.2534882000182,813.2534882000182,x,1,0.5353178000077605,None,khushi,001,2023-10-09_11h43.49.482,sequential_learning,2023.1.3,60.47843273945566,
-50,x,,,,,30,1,121,0,813.8201277998742,814.8201778000221,814.8201778000221,814.8201778000221,814.8201778000221,814.8201778000221,815.8201987999491,815.8201987999491,x,1,0.5249608003068715,None,khushi,001,2023-10-09_11h43.49.482,sequential_learning,2023.1.3,60.47843273945566,
-150,z,,,,,30,2,122,3,816.3694811000023,817.3695363998413,817.3695363998413,817.3695363998413,817.3695363998413,817.3695363998413,818.3699170998298,818.3699170998298,z,1,0.48728960007429123,None,khushi,001,2023-10-09_11h43.49.482,sequential_learning,2023.1.3,60.47843273945566,
-150,z,,,,,30,3,123,3,818.8862516998779,819.8864317999687,819.8864317999687,819.8864317999687,819.8864317999687,819.8864317999687,820.8858227999881,820.8858227999881,z,1,0.4403448002412915,None,khushi,001,2023-10-09_11h43.49.482,sequential_learning,2023.1.3,60.47843273945566,
-150,z,,,,,31,0,124,3,821.3527336998377,822.3523843998555,822.3523843998555,822.3523843998555,822.3523843998555,822.3523843998555,823.3525115998928,823.3525115998928,z,1,0.5474336000625044,None,khushi,001,2023-10-09_11h43.49.482,sequential_learning,2023.1.3,60.47843273945566,
50,c,,,,,31,1,125,2,823.9188190000132,824.9190916998778,824.9190916998778,824.9190916998778,824.9190916998778,824.9190916998778,825.9187813999597,825.9187813999597,c,1,0.6580968000926077,None,khushi,001,2023-10-09_11h43.49.482,sequential_learning,2023.1.3,60.47843273945566,
150,v,,,,,31,2,126,1,826.601962900022,827.6016983999871,827.6016983999871,827.6016983999871,827.6016983999871,827.6016983999871,828.6019403999671,828.6019403999671,v,1,0.6127945999614894,None,khushi,001,2023-10-09_11h43.49.482,sequential_learning,2023.1.3,60.47843273945566,
-150,z,,,,,31,3,127,3,829.2344931999687,830.2348908998538,830.2348908998538,830.2348908998538,830.2348908998538,830.2348908998538,831.2346059998963,831.2346059998963,z,1,0.47242450015619397,None,khushi,001,2023-10-09_11h43.49.482,sequential_learning,2023.1.3,60.47843273945566,
150,v,,,,,32,0,128,1,831.7346387999132,832.7181011999492,832.7181011999492,832.7181011999492,832.7181011999492,832.7346111999359,833.7177472000476,833.7177472000476,v,1,0.7125447001308203,None,khushi,001,2023-10-09_11h43.49.482,sequential_learning,2023.1.3,60.47843273945566,
-150,z,,,,,32,1,129,3,834.4507740999106,835.4341765998397,835.4341765998397,835.4341765998397,835.4341765998397,835.4505415000021,836.4501906000078,836.4501906000078,z,1,0.37984450021758676,None,khushi,001,2023-10-09_11h43.49.482,sequential_learning,2023.1.3,60.47843273945566,
-150,z,,,,,32,2,130,3,836.8509724000469,837.8503215999808,837.8503215999808,837.8503215999808,837.8503215999808,837.8503215999808,838.8503199999686,838.8503199999686,z,1,0.5301110001746565,None,khushi,001,2023-10-09_11h43.49.482,sequential_learning,2023.1.3,60.47843273945566,
50,c,,,,,32,3,131,2,839.4001541999169,840.4001348998863,840.4001348998863,840.4001348998863,840.4001348998863,840.4001348998863,841.3998090999667,841.3998090999667,c,1,0.7393288002349436,None,khushi,001,2023-10-09_11h43.49.482,sequential_learning,2023.1.3,60.47843273945566,
50,c,,,,,33,0,132,2,842.1667128000408,843.1660209998954,843.1660209998954,843.1660209998954,843.1660209998954,843.1660209998954,844.1660847999156,844.1660847999156,c,1,0.7629354000091553,None,khushi,001,2023-10-09_11h43.49.482,sequential_learning,2023.1.3,60.47843273945566,
150,v,,,,,33,1,133,1,844.9497227999382,845.9495979999192,845.9495979999192,845.9495979999192,845.9495979999192,845.9495979999192,846.9488727999851,846.9488727999851,v,1,0.4919224001932889,None,khushi,001,2023-10-09_11h43.49.482,sequential_learning,2023.1.3,60.47843273945566,
150,v,,,,,33,2,134,1,847.465896599926,848.4658892999869,848.4658892999869,848.4658892999869,848.4658892999869,848.4658892999869,849.46566909994,849.46566909994,v,1,0.6818638001568615,None,khushi,001,2023-10-09_11h43.49.482,sequential_learning,2023.1.3,60.47843273945566,
50,c,,,,,33,3,135,2,850.1652666998561,851.1654419999104,851.1654419999104,851.1654419999104,851.1654419999104,851.1654419999104,852.1651584999636,852.1651584999636,c,1,0.6678408000152558,None,khushi,001,2023-10-09_11h43.49.482,sequential_learning,2023.1.3,60.47843273945566,
-150,z,,,,,34,0,136,3,852.8650255999528,853.8656587998848,853.8656587998848,853.8656587998848,853.8656587998848,853.8656587998848,854.8648973000236,854.8648973000236,z,1,0.5175254999194294,None,khushi,001,2023-10-09_11h43.49.482,sequential_learning,2023.1.3,60.47843273945566,
50,c,,,,,34,1,137,2,855.4150620000437,856.4143411000259,856.4143411000259,856.4143411000259,856.4143411000259,856.4143411000259,857.4145734000485,857.4145734000485,c,1,0.9700185002293438,None,khushi,001,2023-10-09_11h43.49.482,sequential_learning,2023.1.3,60.47843273945566,
50,c,,,,,34,2,138,2,858.4141426999122,859.4142038999125,859.4142038999125,859.4142038999125,859.4142038999125,859.4142038999125,860.4138366000261,860.4138366000261,c,1,0.7532703999895602,None,khushi,001,2023-10-09_11h43.49.482,sequential_learning,2023.1.3,60.47843273945566,
-50,x,,,,,34,3,139,0,861.1972727999091,862.1971122999676,862.1971122999676,862.1971122999676,862.1971122999676,862.1971122999676,863.1971767998766,863.1971767998766,x,1,0.5783360002096742,None,khushi,001,2023-10-09_11h43.49.482,sequential_learning,2023.1.3,60.47843273945566,
-150,z,,,,,35,0,140,3,863.7968478000257,864.7803602998611,864.7803602998611,864.7803602998611,864.7803602998611,864.796659299871,865.7797958999872,865.7797958999872,z,1,0.5030531000811607,None,khushi,001,2023-10-09_11h43.49.482,sequential_learning,2023.1.3,60.47843273945566,
-50,x,,,,,35,1,141,0,866.3131176000461,867.3132938998751,867.3132938998751,867.3132938998751,867.3132938998751,867.3132938998751,868.3133707998786,868.3133707998786,x,1,0.6320227000396699,None,khushi,001,2023-10-09_11h43.49.482,sequential_learning,2023.1.3,60.47843273945566,
150,v,,,,,35,2,142,1,868.9647754000034,869.9628741999622,869.9628741999622,869.9628741999622,869.9628741999622,869.979915099917,870.9627092999872,870.9627092999872,v,1,0.7122176000848413,None,khushi,001,2023-10-09_11h43.49.482,sequential_learning,2023.1.3,60.47843273945566,
150,v,,,,,35,3,143,1,871.6961727000307,872.6795023998711,872.6795023998711,872.6795023998711,872.6795023998711,872.6959897999186,873.6788311998826,873.6788311998826,v,1,0.4193468000739813,None,khushi,001,2023-10-09_11h43.49.482,sequential_learning,2023.1.3,60.47843273945566,
150,v,,,,,36,0,144,1,874.1287308000028,875.1287809999194,875.1287809999194,875.1287809999194,875.1287809999194,875.1287809999194,876.1288580999244,876.1288580999244,v,1,0.5994031003210694,None,khushi,001,2023-10-09_11h43.49.482,sequential_learning,2023.1.3,60.47843273945566,
-150,z,,,,,36,1,145,3,876.7453308999538,877.7450983000454,877.7450983000454,877.7450983000454,877.7450983000454,877.7450983000454,878.7448616998736,878.7448616998736,z,1,0.39295460004359484,None,khushi,001,2023-10-09_11h43.49.482,sequential_learning,2023.1.3,60.47843273945566,
150,v,,,,,36,2,146,1,879.162062499905,880.1621721000411,880.1621721000411,880.1621721000411,880.1621721000411,880.1621721000411,881.1614161999896,881.1614161999896,v,1,0.5400303001515567,None,khushi,001,2023-10-09_11h43.49.482,sequential_learning,2023.1.3,60.47843273945566,
-150,z,,,,,36,3,147,3,881.7280814000405,882.7280164998956,882.7280164998956,882.7280164998956,882.7280164998956,882.7280164998956,883.7274635999929,883.7274635999929,z,1,0.42768120020627975,None,khushi,001,2023-10-09_11h43.49.482,sequential_learning,2023.1.3,60.47843273945566,
-150,z,,,,,37,0,148,3,884.1776391000021,885.176852799952,885.176852799952,885.176852799952,885.176852799952,885.176852799952,886.1773014999926,886.1773014999926,z,1,0.4647655999287963,None,khushi,001,2023-10-09_11h43.49.482,sequential_learning,2023.1.3,60.47843273945566,
50,c,,,,,37,1,149,2,886.6604144000448,887.6435756999999,887.6435756999999,887.6435756999999,887.6435756999999,887.6603790998925,888.6605398999527,888.6605398999527,v,0,0.5066065001301467,None,khushi,001,2023-10-09_11h43.49.482,sequential_learning,2023.1.3,60.47843273945566,
150,v,,,,,37,2,150,1,889.1934392000549,890.1932905998547,890.1932905998547,890.1932905998547,890.1932905998547,890.1932905998547,891.1930281999521,891.1930281999521,v,1,0.5112314000725746,None,khushi,001,2023-10-09_11h43.49.482,sequential_learning,2023.1.3,60.47843273945566,
-50,x,,,,,37,3,151,0,891.7268615998328,892.7263611999806,892.7263611999806,892.7263611999806,892.7263611999806,892.7263611999806,893.7263743998483,893.7263743998483,x,1,0.6613320000469685,None,khushi,001,2023-10-09_11h43.49.482,sequential_learning,2023.1.3,60.47843273945566,
50,c,,,,,38,0,152,2,894.4093795998488,895.4100671999622,895.4100671999622,895.4100671999622,895.4100671999622,895.4100671999622,896.4090168999974,896.4090168999974,c,1,1.0326546002179384,None,khushi,001,2023-10-09_11h43.49.482,sequential_learning,2023.1.3,60.47843273945566,
50,c,,,,,38,1,153,2,897.4586699998472,898.4591618999839,898.4591618999839,898.4591618999839,898.4591618999839,898.4591618999839,899.4584090998396,899.4584090998396,c,1,0.3362202001735568,None,khushi,001,2023-10-09_11h43.49.482,sequential_learning,2023.1.3,60.47843273945566,
50,c,,,,,38,2,154,2,899.8252739999443,900.8256872999482,900.8256872999482,900.8256872999482,900.8256872999482,900.8256872999482,901.8254611999728,901.8254611999728,c,1,0.4943556999787688,None,khushi,001,2023-10-09_11h43.49.482,sequential_learning,2023.1.3,60.47843273945566,
150,v,,,,,38,3,155,1,902.3418739999179,903.3416973999701,903.3416973999701,903.3416973999701,903.3416973999701,903.3416973999701,904.3412935999222,904.3412935999222,v,1,1.210310900118202,None,khushi,001,2023-10-09_11h43.49.482,sequential_learning,2023.1.3,60.47843273945566,
-150,z,,,,,39,0,156,3,905.5745922999922,906.5746255000122,906.5746255000122,906.5746255000122,906.5746255000122,906.5746255000122,907.5743456999771,907.5743456999771,z,1,1.282301900209859,None,khushi,001,2023-10-09_11h43.49.482,sequential_learning,2023.1.3,60.47843273945566,
50,c,,,,,39,1,157,2,908.874266800005,909.8746042998973,909.8746042998973,909.8746042998973,909.8746042998973,909.8746042998973,910.8740717000328,910.8740717000328,c,1,0.9883326000999659,None,khushi,001,2023-10-09_11h43.49.482,sequential_learning,2023.1.3,60.47843273945566,
50,c,,,,,39,2,158,2,911.8906982999761,912.8908388998825,912.8908388998825,912.8908388998825,912.8908388998825,912.8908388998825,913.8907598999795,913.8907598999795,c,1,1.1884191001299769,None,khushi,001,2023-10-09_11h43.49.482,sequential_learning,2023.1.3,60.47843273945566,
